G:\BEAR_storage\User_Experiments\20220108_arneodo\Bpm\file(1)_bpm_0016.txt
Ring Energy (GeV): 2
Lifetime (hours): 16.9822
Scan beginning: 8/1/2022	5:34:18 PM
Ring current (mA): 308.97
Source position: x (mm): -0.005 x' (mrad): 0.004 y (mm): -0.004 y' (mrad): 0
Scan end: 8/1/2022	5:43:44 PM
Ring current (mA): 308.46
Source position: x (mm): -0.005 x' (mrad): 0.005 y (mm): -0.002 y' (mrad): 0.001

SCAN TYPE: PHOTON ENERGY VS VAR_1 VS VAR_2

FILE INFO: FILE INFO:

SCAN PARAMETERS
waiting time (ms): 0
Number of scans: 1
Current scan number: 1
DARK OFF 
PREDARK OFF 

SCAN PARAMETERS
Regions configuration: 
number of regions: 7
Mirror grating scan: on
Timed acquisition: off
Region 1:
Initial energy (eV): 3.000000
Final energy (eV): 4.500000
Delta energy (eV): 1.000000
Deviation angle choice: Degrees: 
Deviation angle (°): NaN
B270 window
GNIM channel
range keithley B 200 pA
range keithley C 2 uA
range keithley A 200 pA
Var_1: XM3.000000
Var_2: YM15.000000
Bias CEM (V): 0.000000
Bias Keithley B (V): -30.000000
Name region: 
Region 2:
Initial energy (eV): 4.000000
Final energy (eV): 8.000000
Delta energy (eV): 1.000000
Deviation angle choice: Degrees: 
Deviation angle (°): NaN
SiO2 window
GNIM channel
range keithley B 200 pA
range keithley C 2 uA
range keithley A 200 pA
Var_1: XM3.000000
Var_2: YM15.000000
Bias CEM (V): 0.000000
Bias Keithley B (V): -30.000000
Name region: 
Region 3:
Initial energy (eV): 7.000000
Final energy (eV): 12.000000
Delta energy (eV): 1.000000
Deviation angle choice: Degrees: 
Deviation angle (°): NaN
filter LiF window
GNIM channel
range keithley B 200 pA
range keithley C 2 uA
range keithley A 200 pA
Var_1: XM3.000000
Var_2: YM15.000000
Bias CEM (V): 0.000000
Bias Keithley B (V): -30.000000
Name region: 
Region 4:
Initial energy (eV): 11.000000
Final energy (eV): 18.000000
Delta energy (eV): 1.000000
Deviation angle choice: Degrees: 
Deviation angle (°): NaN
In filter
GNIM channel
range keithley B 200 pA
range keithley C 2 uA
range keithley A 200 pA
Var_1: XM3.000000
Var_2: YM15.000000
Bias CEM (V): 0.000000
Bias Keithley B (V): -30.000000
Name region: 
Region 5:
Initial energy (eV): 15.000000
Final energy (eV): 25.000000
Delta energy (eV): 1.000000
Deviation angle choice: Degrees: 
Deviation angle (°): NaN
Sn filter
GNIM channel
range keithley B 20 nA
range keithley C 2 uA
range keithley A 20 nA
Var_1: XM3.000000
Var_2: YM15.000000
Bias CEM (V): 0.000000
Bias Keithley B (V): -30.000000
Name region: 
Region 6:
Initial energy (eV): 23.000000
Final energy (eV): 45.000000
Delta energy (eV): 1.000000
Deviation angle choice: Degrees: 
Deviation angle (°): NaN
Full Beam
GNIM channel
range keithley B 20 nA
range keithley C 2 uA
range keithley A 20 nA
Var_1: XM3.000000
Var_2: YM15.000000
Bias CEM (V): 0.000000
Bias Keithley B (V): -30.000000
Name region: 
Region 7:
Initial energy (eV): 23.000000
Final energy (eV): 45.000000
Delta energy (eV): 1.000000
Deviation angle choice: Degrees: 
Deviation angle (°): NaN
Al filter
GNIM channel
range keithley B 20 nA
range keithley C 2 uA
range keithley A 20 nA
Var_1: XM3.000000
Var_2: YM15.000000
Bias CEM (V): 0.000000
Bias Keithley B (V): -30.000000
Name region: 

BEAR MONOCHROMATOR CONFIGURATION: 
Current Grating Position:     200055.60
Current Mirror Position: 9999.8
Current Grating: GNIM
P2 phiz position:  -0.0195
Mono axis position: 73.5000
Current Photon Energy (eV): 44.998
Current Deviation Angle: 29.905
Vertical Exit Slits (um): 450.000
Exit slit y axis position: 2.2375
Horizontal Exit Slits (um):  890.000
Exit slit z axis position: 1.9250
Mitutoyo position (mm): 

Dose on sample (mJ/cm^2): NaN

ENERGY CALIBRATION:
offset grating G1200: yes
Delta 0 order G1200:  -500.0
offset grating G1800: not
Delta 0 order G1800:  0.0
offset grating GNIM: not
Delta 0 order GNIM:  0.0
ZERO ORDER POSITIONS:
Grating G1200: Mirror position:  4938.0
Grating position: -105355.0
Grating G1800: 
Mirror position:  4938.0
Grating position: -106345.0
Grating GNIM: 
Mirror position:  10000.0
Grating position: 227300.0

Initial filter: Al filter

EXPERIMENTAL CHAMBER CONFIGURATION: 
PsiC (deg):   0.036413
Phi Analyzer (degrees): -0.009471
Theta Manipulator (degrees): -45.000040
Theta Analyzer (degrees): -0.000455
PhiM (degrees): -0.006155
XM (mm): 2.999938
YM (mm): 14.999863
ZM (mm): (Warning: for kinetic energy scans, 
this parameter is given in the scan settings) 
-8.300075
TiltM (°): -0.000275

COIL VALUES
Ix (amps):2.950
Iy (amps): 6.790
Iz (amps): 14.440

POLARIZATION SELECTOR CONFIGURATION:
Psi1 (rad): -0.001665535
Psi2 (rad): 0.001417093
Z min position (mm): 46.599650
DZ position (mm): 18.599100
Zmin 0 (mm): 66.500000
DZ0 (mm): 53.000000

BEAM SELECTOR CONFIGURATION:
Zmin position (mm): 158.000000
DZ position (mm): 264.000000
Y+ position (mm): 291.700000
Y- position (mm): NaN

CHANNEL ELECTRON MULTIPLIER CONFIGURATION:
CEM configured: OFF
Bias CEM: 0.000000

FLUORESCENCE DETECTOR CONFIGURATION:
Not configured

LUMINESCENCE MONOCHROMATOR CONFIGURATION:
Optical fiber position (mm): 0.000000
Optical fiber Switch inside: OFF
Optical fiber Switch outside: ON
Monochromator wavelength (A): 229000.000000
Limit Switches: OFF

I0 MONITOR PARAMETERS:
I0 detector position(mm): 1.924999E+2
Lower switch: OFF
Upper switch: OFF
Valve status:open

PRESSURE PARAMETERS:
Monitor chamber pressure (mbar): 1.438e-09
Experimental chamber pressure -ION GAUGE-(mbar): 0.000000E+0

XMCD PARAMETERS:
Xmcd OFF
Xmcd Direction -
Xmcd current (A): 0.000000

Gated scan on
Shutter open time (ms): 632833797
Shutter aperture time (ms): 555988

Instrument 1: AMMETER KEITHLEY 6517A B
Measure type: Current
range type: set range value
range value (ampere):  200 pA
Integration time:  set NPLC value
NPLC value: 10.000
Digital filter count: 2
SAMPLE BIAS (V): -30.000
Vsource: ON
Output Voltage value: 30.000
Vsource range: 1000 V

Range Keithley B changed to 20 nA

Range Keithley B changed to 200 pA

Range Keithley B changed to 20 nA

Range Keithley B changed to 200 pA

Range Keithley B changed to 20 nA

Range Keithley B changed to 200 pA

Range Keithley B changed to 20 nA

Range Keithley B changed to 200 pA

Range Keithley B changed to 20 nA

Range Keithley B changed to 200 nA

Range Keithley B changed to 20 nA

Range Keithley B changed to 200 nA

Range Keithley B changed to 200 pA

Range Keithley B changed to 20 nA

Range Keithley B changed to 200 pA

Range Keithley B changed to 20 nA

Range Keithley B changed to 200 pA

Range Keithley B changed to 20 nA

Range Keithley B changed to 200 pA

Range Keithley B changed to 20 nA

Range Keithley B changed to 200 pA

Range Keithley B changed to 20 nA

Instrument 2: AMMETER KEITHLEY 6517A A
Measure type: Current
range type: set range value
range value (ampere):  20 nA
Integration time:  set NPLC value
NPLC value: 10.000
Digital filter count: 2
Vsource: OFF
Output Voltage value: -0.000
Vsource range: 100 V
Trigger source: bus

Range Keithley A changed to 200 nA

Range Keithley A changed to 200 pA

Range Keithley A changed to 20 nA

Range Keithley A changed to 200 nA

Range Keithley A changed to 20 nA

Range Keithley A changed to 200 nA

Range Keithley A changed to 20 nA

Range Keithley A changed to 200 nA

Range Keithley A changed to 200 pA

Range Keithley A changed to 20 nA

Range Keithley A changed to 200 pA

Range Keithley A changed to 20 nA

Range Keithley A changed to 200 pA

Range Keithley A changed to 20 nA

Range Keithley A changed to 200 pA

Range Keithley A changed to 20 nA

Range Keithley A changed to 200 pA

Range Keithley A changed to 20 nA

Instrument 3: AMMETER KEITHLEY 6517A C 
Measure type: Current
range type: set range value
range value (ampere):  2 uA
Integration time:  set NPLC value
NPLC value: 10.000
Digital filter count: 2
Vsource: OFF
Output Voltage value: -0.000
Vsource range: 100 V
Trigger source: bus


________________________________________________________________________________

RelativeTime (msec)	Photon Energy	Var_1	Var_2	a) I_1 (Amps)	b) I_2 (Amps)	d) I_3 (Amps)	c) I_4 (Amps)	I_BPM_sum (Amps)	Delta Z(mm)	
________________________________________________________________________________

1.06740000E+4	2.99999425E+0	3.00000000E+0	1.50000000E+1	1.63892408E-5	1.13517477E-5	3.38605146E-5	2.74495456E-5	8.90510486E-5	4.76208816E-4
5.38740000E+4	3.99999514E+0	3.00000000E+0	1.50000000E+1	1.64415737E-5	1.13602026E-5	3.37938498E-5	2.74509403E-5	8.90465664E-5	4.76184847E-4
6.71240000E+4	4.00000299E+0	3.00000000E+0	1.50000000E+1	1.62613173E-5	1.14346875E-5	3.40805571E-5	2.74235877E-5	8.92001497E-5	4.77006148E-4
9.52740000E+4	4.99998805E+0	3.00000000E+0	1.50000000E+1	1.63795312E-5	1.13436444E-5	3.40914141E-5	2.74767759E-5	8.92913657E-5	4.77493934E-4
1.15673000E+5	5.99999527E+0	3.00000000E+0	1.50000000E+1	1.63013925E-5	1.13500162E-5	3.38479172E-5	2.75067750E-5	8.90061008E-5	4.75968453E-4
1.32281000E+5	6.99999197E+0	3.00000000E+0	1.50000000E+1	1.63543989E-5	1.13055004E-5	3.39970003E-5	2.74500015E-5	8.91069012E-5	4.76507493E-4
1.46445000E+5	8.00000234E+0	3.00000000E+0	1.50000000E+1	1.64221426E-5	1.14089085E-5	3.38667254E-5	2.74736169E-5	8.91713934E-5	4.76852371E-4
1.68388000E+5	7.00000399E+0	3.00000000E+0	1.50000000E+1	1.63157602E-5	1.13687261E-5	3.39316856E-5	2.74017665E-5	8.90179383E-5	4.76031755E-4
1.83984000E+5	7.99999711E+0	3.00000000E+0	1.50000000E+1	1.64403607E-5	1.13961770E-5	3.37318014E-5	2.75384310E-5	8.91067701E-5	4.76506792E-4
1.96541000E+5	8.99995233E+0	3.00000000E+0	1.50000000E+1	1.63015623E-5	1.13329931E-5	3.38729035E-5	2.75361750E-5	8.90436338E-5	4.76169165E-4
2.08085000E+5	9.99999901E+0	3.00000000E+0	1.50000000E+1	1.63708259E-5	1.13259925E-5	3.39247982E-5	2.72230181E-5	8.88446348E-5	4.75104999E-4
2.18802000E+5	1.10000237E+1	3.00000000E+0	1.50000000E+1	1.62948032E-5	1.12938179E-5	3.40170722E-5	2.73444089E-5	8.89501022E-5	4.75668996E-4
2.28815000E+5	1.19999824E+1	3.00000000E+0	1.50000000E+1	1.62683149E-5	1.13277657E-5	3.38591050E-5	2.74736676E-5	8.89288531E-5	4.75555364E-4
2.45554000E+5	1.10000040E+1	3.00000000E+0	1.50000000E+1	1.63102616E-5	1.13872542E-5	3.40456556E-5	2.74870101E-5	8.92301815E-5	4.77166746E-4
2.56958000E+5	1.19999706E+1	3.00000000E+0	1.50000000E+1	1.63016041E-5	1.14507927E-5	3.39785944E-5	2.74936858E-5	8.92246770E-5	4.77137310E-4
2.66838000E+5	1.29999603E+1	3.00000000E+0	1.50000000E+1	1.64442261E-5	1.14220067E-5	3.39236240E-5	2.76136789E-5	8.94035357E-5	4.78093774E-4
2.76097000E+5	1.39999167E+1	3.00000000E+0	1.50000000E+1	1.64104273E-5	1.13918288E-5	3.40305935E-5	2.74885985E-5	8.93214481E-5	4.77654803E-4
2.85090000E+5	1.50000390E+1	3.00000000E+0	1.50000000E+1	1.64558400E-5	1.13365068E-5	3.40034049E-5	2.74716440E-5	8.92673956E-5	4.77365752E-4
2.93426000E+5	1.60000215E+1	3.00000000E+0	1.50000000E+1	1.64121022E-5	1.13560303E-5	3.41340016E-5	2.74730834E-5	8.93752175E-5	4.77942339E-4
3.01532000E+5	1.69999528E+1	3.00000000E+0	1.50000000E+1	1.64030780E-5	1.14089413E-5	3.40502124E-5	2.76164892E-5	8.94787210E-5	4.78495834E-4
3.09669000E+5	1.79999259E+1	3.00000000E+0	1.50000000E+1	1.64447178E-5	1.14213450E-5	3.40848546E-5	2.73275676E-5	8.92784851E-5	4.77425054E-4
3.28439000E+5	1.50000942E+1	3.00000000E+0	1.50000000E+1	1.63700362E-5	1.13468243E-5	3.40653311E-5	2.74188819E-5	8.92010736E-5	4.77011089E-4
3.37164000E+5	1.59999378E+1	3.00000000E+0	1.50000000E+1	1.63915147E-5	1.13687857E-5	3.41099839E-5	2.73470345E-5	8.92173188E-5	4.77097961E-4
3.44036000E+5	1.69998584E+1	3.00000000E+0	1.50000000E+1	1.63655777E-5	1.13206072E-5	3.39596014E-5	2.73990127E-5	8.90447991E-5	4.76175396E-4
3.50916000E+5	1.80000054E+1	3.00000000E+0	1.50000000E+1	1.63738151E-5	1.14154621E-5	3.40535711E-5	2.75319192E-5	8.93747675E-5	4.77939933E-4
3.57476000E+5	1.90000967E+1	3.00000000E+0	1.50000000E+1	1.64310087E-5	1.13854869E-5	3.38674109E-5	2.75418612E-5	8.92257678E-5	4.77143143E-4
3.64045000E+5	2.00000897E+1	3.00000000E+0	1.50000000E+1	1.64744695E-5	1.13997354E-5	3.39232753E-5	2.75405768E-5	8.93380570E-5	4.77743620E-4
3.69959000E+5	2.10000506E+1	3.00000000E+0	1.50000000E+1	1.65426989E-5	1.13370134E-5	3.40089988E-5	2.75636795E-5	8.94523906E-5	4.78355030E-4
3.75642000E+5	2.20000397E+1	3.00000000E+0	1.50000000E+1	1.63612653E-5	1.13977952E-5	3.38898550E-5	2.74792406E-5	8.91281562E-5	4.76621156E-4
3.81410000E+5	2.29998284E+1	3.00000000E+0	1.50000000E+1	1.64541175E-5	1.13752200E-5	3.40156029E-5	2.75825504E-5	8.94274908E-5	4.78221876E-4
3.86877000E+5	2.39998849E+1	3.00000000E+0	1.50000000E+1	1.64186497E-5	1.13702013E-5	3.39816939E-5	2.74376455E-5	8.92081903E-5	4.77049146E-4
3.92467000E+5	2.49999855E+1	3.00000000E+0	1.50000000E+1	1.63107117E-5	1.13536461E-5	3.39112382E-5	2.75445554E-5	8.91201513E-5	4.76578349E-4
4.07001000E+5	2.30000877E+1	3.00000000E+0	1.50000000E+1	1.63400640E-5	1.13356038E-5	3.40100329E-5	2.75632235E-5	8.92489242E-5	4.77266974E-4
4.13942000E+5	2.40000261E+1	3.00000000E+0	1.50000000E+1	1.63451602E-5	1.13220735E-5	3.39210879E-5	2.73515168E-5	8.89398383E-5	4.75614108E-4
4.19577000E+5	2.49999344E+1	3.00000000E+0	1.50000000E+1	1.63350959E-5	1.13707973E-5	3.40178024E-5	2.74257603E-5	8.91494559E-5	4.76735058E-4
4.24639000E+5	2.60001583E+1	3.00000000E+0	1.50000000E+1	1.63277467E-5	1.13980098E-5	3.39575331E-5	2.74043742E-5	8.90876638E-5	4.76404619E-4
4.29719000E+5	2.69999804E+1	3.00000000E+0	1.50000000E+1	1.64162417E-5	1.13895966E-5	3.40583037E-5	2.74091187E-5	8.92732607E-5	4.77397116E-4
4.34628000E+5	2.79998529E+1	3.00000000E+0	1.50000000E+1	1.63894792E-5	1.13328947E-5	3.40948652E-5	2.74072948E-5	8.92245339E-5	4.77136545E-4
4.39622000E+5	2.89999415E+1	3.00000000E+0	1.50000000E+1	1.63177331E-5	1.13558634E-5	3.39700292E-5	2.73584130E-5	8.90020387E-5	4.75946731E-4
4.44388000E+5	3.00002474E+1	3.00000000E+0	1.50000000E+1	1.64798935E-5	1.13554253E-5	3.39105289E-5	2.75019410E-5	8.92477887E-5	4.77260902E-4
4.49208000E+5	3.10002446E+1	3.00000000E+0	1.50000000E+1	1.64324840E-5	1.13708629E-5	3.39689593E-5	2.74946573E-5	8.92669635E-5	4.77363441E-4
4.53870000E+5	3.19997755E+1	3.00000000E+0	1.50000000E+1	1.63681050E-5	1.13541736E-5	3.39708995E-5	2.74080250E-5	8.91012030E-5	4.76477021E-4
4.58574000E+5	3.30002852E+1	3.00000000E+0	1.50000000E+1	1.63057734E-5	1.13550766E-5	3.38491033E-5	2.73106727E-5	8.88206260E-5	4.74976610E-4
4.63048000E+5	3.40000760E+1	3.00000000E+0	1.50000000E+1	1.63293709E-5	1.13627447E-5	3.39569877E-5	2.74235430E-5	8.90726464E-5	4.76324312E-4
4.67592000E+5	3.49994680E+1	3.00000000E+0	1.50000000E+1	1.64204647E-5	1.13849683E-5	3.40176414E-5	2.75274637E-5	8.93505382E-5	4.77810365E-4
4.71986000E+5	3.60003077E+1	3.00000000E+0	1.50000000E+1	1.63252343E-5	1.13468392E-5	3.39578162E-5	2.74212840E-5	8.90511738E-5	4.76209486E-4
4.76204000E+5	3.70007988E+1	3.00000000E+0	1.50000000E+1	1.63620730E-5	1.13890840E-5	3.40211313E-5	2.75289211E-5	8.93012094E-5	4.77546574E-4
4.80542000E+5	3.80002292E+1	3.00000000E+0	1.50000000E+1	1.63796593E-5	1.13887294E-5	3.39525800E-5	2.74752858E-5	8.91962545E-5	4.76985318E-4
4.84743000E+5	3.89997655E+1	3.00000000E+0	1.50000000E+1	1.63397391E-5	1.13741709E-5	3.41442000E-5	2.75294754E-5	8.93875854E-5	4.78008478E-4
4.88998000E+5	3.99993692E+1	3.00000000E+0	1.50000000E+1	1.64506187E-5	1.13349630E-5	3.38644128E-5	2.76038650E-5	8.92538594E-5	4.77293366E-4
4.93051000E+5	4.10001260E+1	3.00000000E+0	1.50000000E+1	1.64964427E-5	1.13874270E-5	3.40844880E-5	2.75122854E-5	8.94806432E-5	4.78506113E-4
4.97876000E+5	4.20005774E+1	3.00000000E+0	1.50000000E+1	1.62065943E-5	1.13657637E-5	3.40023737E-5	2.74818245E-5	8.90565561E-5	4.76238268E-4
5.01906000E+5	4.29994935E+1	3.00000000E+0	1.50000000E+1	1.63401564E-5	1.13714291E-5	3.39348059E-5	2.76765469E-5	8.93229382E-5	4.77662771E-4
5.05951000E+5	4.40005229E+1	3.00000000E+0	1.50000000E+1	1.64305319E-5	1.14610388E-5	3.40516369E-5	2.75765810E-5	8.95197886E-5	4.78715447E-4
5.10155000E+5	4.50000737E+1	3.00000000E+0	1.50000000E+1	1.64156725E-5	1.14101304E-5	3.40048532E-5	2.75320444E-5	8.93627005E-5	4.77875404E-4
5.30671000E+5	2.30003903E+1	3.00000000E+0	1.50000000E+1	1.64277633E-5	1.13941206E-5	3.40371888E-5	2.75451455E-5	8.94042181E-5	4.78097423E-4
5.37549000E+5	2.40000731E+1	3.00000000E+0	1.50000000E+1	1.64567550E-5	1.13840057E-5	3.39526634E-5	2.76400629E-5	8.94334870E-5	4.78253941E-4
5.43149000E+5	2.49996280E+1	3.00000000E+0	1.50000000E+1	1.63169672E-5	1.13732262E-5	3.39517604E-5	2.73702416E-5	8.90121954E-5	4.76001045E-4
5.48224000E+5	2.60003793E+1	3.00000000E+0	1.50000000E+1	1.63425286E-5	1.13803698E-5	3.39880239E-5	2.74277750E-5	8.91386973E-5	4.76677526E-4
5.53279000E+5	2.69999208E+1	3.00000000E+0	1.50000000E+1	1.62066270E-5	1.13247348E-5	3.40339195E-5	2.73776266E-5	8.89429079E-5	4.75630524E-4
5.58210000E+5	2.80000451E+1	3.00000000E+0	1.50000000E+1	1.63421710E-5	1.13204403E-5	3.39173477E-5	2.74307939E-5	8.90107529E-5	4.75993331E-4
2.14748365E+9	2.90000000E+1	3.00000000E+0	1.50000000E+1	1.64609213E-5	1.13935991E-5	3.42073958E-5	2.75958154E-5	8.96577316E-5	4.79453110E-4
