G:\BEAR_storage\User_Experiments\20220108_arneodo\Bpm\file(1)_bpm_0038.txt
Ring Energy (GeV): 2
Lifetime (hours): 17.4114
Scan beginning: 8/2/2022	3:31:49 PM
Ring current (mA): 308.2
Source position: x (mm): -0.005 x' (mrad): 0.004 y (mm): -0.004 y' (mrad): 0
Scan end: 8/2/2022	3:42:21 PM
Ring current (mA): 307.97
Source position: x (mm): -0.006 x' (mrad): 0.004 y (mm): -0.006 y' (mrad): 0.001

SCAN TYPE: PHOTON ENERGY VS VAR_1 VS VAR_2

FILE INFO: FILE INFO:

SCAN PARAMETERS
waiting time (ms): 0
Number of scans: 1
Current scan number: 1
DARK OFF 
PREDARK OFF 

SCAN PARAMETERS
Regions configuration: 
number of regions: 7
Mirror grating scan: on
Timed acquisition: off
Region 1:
Initial energy (eV): 3.000000
Final energy (eV): 4.500000
Delta energy (eV): 1.000000
Deviation angle choice: Degrees: 
Deviation angle (°): NaN
B270 window
GNIM channel
range keithley B 200 pA
range keithley C 2 uA
range keithley A 200 pA
Var_1: XM-5.300000
Var_2: YM30.500000
Bias CEM (V): 0.000000
Bias Keithley B (V): -30.000000
Name region: 
Region 2:
Initial energy (eV): 4.000000
Final energy (eV): 8.000000
Delta energy (eV): 1.000000
Deviation angle choice: Degrees: 
Deviation angle (°): NaN
SiO2 window
GNIM channel
range keithley B 200 pA
range keithley C 2 uA
range keithley A 200 pA
Var_1: XM-5.300000
Var_2: YM30.500000
Bias CEM (V): 0.000000
Bias Keithley B (V): -30.000000
Name region: 
Region 3:
Initial energy (eV): 7.000000
Final energy (eV): 12.000000
Delta energy (eV): 1.000000
Deviation angle choice: Degrees: 
Deviation angle (°): NaN
filter LiF window
GNIM channel
range keithley B 200 pA
range keithley C 2 uA
range keithley A 200 pA
Var_1: XM-5.300000
Var_2: YM30.500000
Bias CEM (V): 0.000000
Bias Keithley B (V): -30.000000
Name region: 
Region 4:
Initial energy (eV): 11.000000
Final energy (eV): 18.000000
Delta energy (eV): 1.000000
Deviation angle choice: Degrees: 
Deviation angle (°): NaN
In filter
GNIM channel
range keithley B 200 pA
range keithley C 2 uA
range keithley A 200 pA
Var_1: XM-5.300000
Var_2: YM30.500000
Bias CEM (V): 0.000000
Bias Keithley B (V): -30.000000
Name region: 
Region 5:
Initial energy (eV): 15.000000
Final energy (eV): 25.000000
Delta energy (eV): 1.000000
Deviation angle choice: Degrees: 
Deviation angle (°): NaN
Sn filter
GNIM channel
range keithley B 20 nA
range keithley C 2 uA
range keithley A 20 nA
Var_1: XM-5.300000
Var_2: YM30.500000
Bias CEM (V): 0.000000
Bias Keithley B (V): -30.000000
Name region: 
Region 6:
Initial energy (eV): 23.000000
Final energy (eV): 45.000000
Delta energy (eV): 1.000000
Deviation angle choice: Degrees: 
Deviation angle (°): NaN
Full Beam
GNIM channel
range keithley B 20 nA
range keithley C 2 uA
range keithley A 20 nA
Var_1: XM-5.300000
Var_2: YM30.500000
Bias CEM (V): 0.000000
Bias Keithley B (V): -30.000000
Name region: 
Region 7:
Initial energy (eV): 23.000000
Final energy (eV): 45.000000
Delta energy (eV): 1.000000
Deviation angle choice: Degrees: 
Deviation angle (°): NaN
Al filter
GNIM channel
range keithley B 20 nA
range keithley C 2 uA
range keithley A 20 nA
Var_1: XM-5.300000
Var_2: YM30.500000
Bias CEM (V): 0.000000
Bias Keithley B (V): -30.000000
Name region: 

BEAR MONOCHROMATOR CONFIGURATION: 
Current Grating Position:     200056.60
Current Mirror Position: 10000.0
Current Grating: GNIM
P2 phiz position:  -0.0195
Mono axis position: 73.5000
Current Photon Energy (eV): 45.000
Current Deviation Angle: 29.905
Vertical Exit Slits (um): 450.000
Exit slit y axis position: 2.2375
Horizontal Exit Slits (um):  890.000
Exit slit z axis position: 1.9250
Mitutoyo position (mm): 

Dose on sample (mJ/cm^2): NaN

ENERGY CALIBRATION:
offset grating G1200: yes
Delta 0 order G1200:  -500.0
offset grating G1800: not
Delta 0 order G1800:  0.0
offset grating GNIM: not
Delta 0 order GNIM:  0.0
ZERO ORDER POSITIONS:
Grating G1200: Mirror position:  4938.0
Grating position: -105355.0
Grating G1800: 
Mirror position:  4938.0
Grating position: -106345.0
Grating GNIM: 
Mirror position:  10000.0
Grating position: 227300.0

Initial filter: Al filter

EXPERIMENTAL CHAMBER CONFIGURATION: 
PsiC (deg):   0.036413
Phi Analyzer (degrees): -0.009471
Theta Manipulator (degrees): -45.000040
Theta Analyzer (degrees): -0.000455
PhiM (degrees): -0.005129
XM (mm): 4.000063
YM (mm): 11.999937
ZM (mm): (Warning: for kinetic energy scans, 
this parameter is given in the scan settings) 
-8.300100
TiltM (°): -0.000275

COIL VALUES
Ix (amps):2.950
Iy (amps): 6.790
Iz (amps): 14.440

POLARIZATION SELECTOR CONFIGURATION:
Psi1 (rad): -0.001665535
Psi2 (rad): 0.001417093
Z min position (mm): 46.599650
DZ position (mm): 18.599100
Zmin 0 (mm): 66.500000
DZ0 (mm): 53.000000

BEAM SELECTOR CONFIGURATION:
Zmin position (mm): 158.000000
DZ position (mm): 264.000000
Y+ position (mm): 291.700000
Y- position (mm): NaN

CHANNEL ELECTRON MULTIPLIER CONFIGURATION:
CEM configured: OFF
Bias CEM: 0.000000

FLUORESCENCE DETECTOR CONFIGURATION:
Not configured

LUMINESCENCE MONOCHROMATOR CONFIGURATION:
Optical fiber position (mm): 0.000000
Optical fiber Switch inside: OFF
Optical fiber Switch outside: ON
Monochromator wavelength (A): 229000.000000
Limit Switches: OFF

I0 MONITOR PARAMETERS:
I0 detector position(mm): -0.000000E+0
Lower switch: OFF
Upper switch: OFF
Valve status:open

PRESSURE PARAMETERS:
Monitor chamber pressure (mbar): 1.367e-09
Experimental chamber pressure -ION GAUGE-(mbar): 0.000000E+0

XMCD PARAMETERS:
Xmcd OFF
Xmcd Direction -
Xmcd current (A): 0.000000

Gated scan off

Instrument 1: AMMETER KEITHLEY 6517A B
Measure type: Current
range type: set range value
range value (ampere):  200 nA
Integration time:  set NPLC value
NPLC value: 10.000
Digital filter count: 2
SAMPLE BIAS (V): -30.000
Vsource: ON
Output Voltage value: 30.000
Vsource range: 1000 V

Range Keithley B changed to 20 nA

Range Keithley B changed to 200 nA

Range Keithley B changed to 200 pA

Range Keithley B changed to 20 nA

Range Keithley B changed to 200 pA

Range Keithley B changed to 20 nA

Range Keithley B changed to 200 nA

Range Keithley B changed to 200 pA

Range Keithley B changed to 20 nA

Range Keithley B changed to 200 pA

Range Keithley B changed to 20 nA

Range Keithley B changed to 200 pA

Range Keithley B changed to 20 nA

Range Keithley B changed to 200 pA

Range Keithley B changed to 20 nA

Range Keithley B changed to 200 nA

Range Keithley B changed to 200 pA

Range Keithley B changed to 20 nA

Range Keithley B changed to 200 pA

Range Keithley B changed to 20 nA

Range Keithley B changed to 200 pA

Range Keithley B changed to 20 nA

Instrument 2: AMMETER KEITHLEY 6517A A
Measure type: Current
range type: set range value
range value (ampere):  20 nA
Integration time:  set NPLC value
NPLC value: 10.000
Digital filter count: 2
Vsource: OFF
Output Voltage value: -0.000
Vsource range: 100 V
Trigger source: bus

Range Keithley A changed to 200 nA

Range Keithley A changed to 20 nA

Range Keithley A changed to 200 nA

Range Keithley A changed to 20 nA

Range Keithley A changed to 200 nA

Range Keithley A changed to 20 nA

Range Keithley A changed to 200 nA

Range Keithley A changed to 200 pA

Range Keithley A changed to 20 nA

Range Keithley A changed to 200 pA

Range Keithley A changed to 20 nA

Range Keithley A changed to 200 pA

Range Keithley A changed to 20 nA

Instrument 3: None


________________________________________________________________________________

RelativeTime (msec)	Photon Energy	Var_1	Var_2	a) I_1 (Amps)	b) I_2 (Amps)	d) I_3 (Amps)	c) I_4 (Amps)	I_BPM_sum (Amps)	Delta Z(mm)	
________________________________________________________________________________

9.83200000E+3	2.99999351E+0	-5.30000000E+0	3.05000000E+1	1.62589778E-5	1.12295075E-5	3.43475442E-5	2.77559135E-5	8.95919430E-5	4.79101299E-4
5.25440000E+4	3.99999514E+0	-5.30000000E+0	3.05000000E+1	1.61360194E-5	1.12760766E-5	3.40839486E-5	2.76880655E-5	8.91841101E-5	4.76920375E-4
6.57440000E+4	4.00000299E+0	-5.30000000E+0	3.05000000E+1	1.61931683E-5	1.12372233E-5	3.41264318E-5	2.77713898E-5	8.93282133E-5	4.77690980E-4
9.44150000E+4	4.99999214E+0	-5.30000000E+0	3.05000000E+1	1.62381430E-5	1.12331434E-5	3.42347007E-5	2.76923362E-5	8.93983232E-5	4.78065900E-4
1.14842000E+5	5.99998351E+0	-5.30000000E+0	3.05000000E+1	1.62076850E-5	1.12419410E-5	3.42473727E-5	2.76972953E-5	8.93942940E-5	4.78044353E-4
1.31412000E+5	6.99998797E+0	-5.30000000E+0	3.05000000E+1	1.61123086E-5	1.13466157E-5	3.42886668E-5	2.78846238E-5	8.96322149E-5	4.79316657E-4
1.45619000E+5	8.00001803E+0	-5.30000000E+0	3.05000000E+1	1.60981525E-5	1.12338229E-5	3.44307851E-5	2.78299126E-5	8.95926731E-5	4.79105204E-4
1.67489000E+5	6.99999998E+0	-5.30000000E+0	3.05000000E+1	1.62950356E-5	1.13038851E-5	3.42702906E-5	2.79840473E-5	8.98532587E-5	4.80498710E-4
1.83091000E+5	7.99999188E+0	-5.30000000E+0	3.05000000E+1	1.62081410E-5	1.12994565E-5	3.43086313E-5	2.78152439E-5	8.96314728E-5	4.79312689E-4
1.95706000E+5	8.99994571E+0	-5.30000000E+0	3.05000000E+1	1.62535061E-5	1.12370534E-5	3.43196671E-5	2.76974949E-5	8.95077216E-5	4.78650918E-4
2.07226000E+5	9.99998267E+0	-5.30000000E+0	3.05000000E+1	1.61953558E-5	1.12385584E-5	3.41660630E-5	2.78704498E-5	8.94704270E-5	4.78451481E-4
2.17928000E+5	1.10000435E+1	-5.30000000E+0	3.05000000E+1	1.61851813E-5	1.12450851E-5	3.42592519E-5	2.76834491E-5	8.93729674E-5	4.77930307E-4
2.27955000E+5	1.19999706E+1	-5.30000000E+0	3.05000000E+1	1.62225296E-5	1.11773772E-5	3.42155259E-5	2.77089778E-5	8.93244105E-5	4.77670644E-4
2.44675000E+5	1.10000336E+1	-5.30000000E+0	3.05000000E+1	1.62973841E-5	1.11977144E-5	3.44375115E-5	2.76691172E-5	8.96017271E-5	4.79153621E-4
2.56063000E+5	1.19999824E+1	-5.30000000E+0	3.05000000E+1	1.62424584E-5	1.12467720E-5	3.42913937E-5	2.77279589E-5	8.95085829E-5	4.78655523E-4
2.65893000E+5	1.29999465E+1	-5.30000000E+0	3.05000000E+1	1.60755057E-5	1.12417443E-5	3.42201214E-5	2.76407245E-5	8.91780960E-5	4.76888214E-4
2.75154000E+5	1.39999808E+1	-5.30000000E+0	3.05000000E+1	1.61201705E-5	1.12915231E-5	3.43194734E-5	2.76535812E-5	8.93847483E-5	4.77993306E-4
2.84114000E+5	1.50000022E+1	-5.30000000E+0	3.05000000E+1	1.61140878E-5	1.12807526E-5	3.40825777E-5	2.76507411E-5	8.91281592E-5	4.76621172E-4
2.92455000E+5	1.60000842E+1	-5.30000000E+0	3.05000000E+1	1.61860366E-5	1.12590386E-5	3.43030702E-5	2.77131561E-5	8.94613015E-5	4.78402682E-4
3.00558000E+5	1.69999292E+1	-5.30000000E+0	3.05000000E+1	1.61710669E-5	1.13054855E-5	3.43863200E-5	2.79055182E-5	8.97683906E-5	4.80044870E-4
3.08689000E+5	1.80000054E+1	-5.30000000E+0	3.05000000E+1	1.61251862E-5	1.13260670E-5	3.41989469E-5	2.77142796E-5	8.93644797E-5	4.77884918E-4
3.27446000E+5	1.50001309E+1	-5.30000000E+0	3.05000000E+1	1.62137677E-5	1.12401856E-5	3.40190451E-5	2.78409455E-5	8.93139439E-5	4.77614673E-4
3.35915000E+5	1.59999797E+1	-5.30000000E+0	3.05000000E+1	1.61269446E-5	1.11998124E-5	3.41858040E-5	2.76426050E-5	8.91551660E-5	4.76765594E-4
3.42742000E+5	1.69998584E+1	-5.30000000E+0	3.05000000E+1	1.60949309E-5	1.12969829E-5	3.41101955E-5	2.77506623E-5	8.92527716E-5	4.77287549E-4
3.49601000E+5	1.79999259E+1	-5.30000000E+0	3.05000000E+1	1.61775549E-5	1.12006827E-5	3.41359775E-5	2.76762399E-5	8.91904550E-5	4.76954305E-4
3.56147000E+5	1.90000672E+1	-5.30000000E+0	3.05000000E+1	1.60404373E-5	1.12587078E-5	3.42428427E-5	2.76844862E-5	8.92264741E-5	4.77146920E-4
3.62721000E+5	2.00001223E+1	-5.30000000E+0	3.05000000E+1	1.62544180E-5	1.12445904E-5	3.42367064E-5	2.77844254E-5	8.95201402E-5	4.78717327E-4
3.68619000E+5	2.10000506E+1	-5.30000000E+0	3.05000000E+1	1.61079903E-5	1.12612022E-5	3.44433408E-5	2.76867661E-5	8.94992995E-5	4.78605880E-4
3.74314000E+5	2.20000397E+1	-5.30000000E+0	3.05000000E+1	1.61645730E-5	1.12720592E-5	3.42598628E-5	2.76888165E-5	8.93853115E-5	4.77996318E-4
3.80052000E+5	2.29998716E+1	-5.30000000E+0	3.05000000E+1	1.61148597E-5	1.13139077E-5	3.41342848E-5	2.78608534E-5	8.94239055E-5	4.78202703E-4
3.85521000E+5	2.39998378E+1	-5.30000000E+0	3.05000000E+1	1.60883803E-5	1.12547560E-5	3.41477941E-5	2.77899000E-5	8.92808305E-5	4.77437596E-4
3.91156000E+5	2.50000876E+1	-5.30000000E+0	3.05000000E+1	1.61390205E-5	1.12747444E-5	3.40493332E-5	2.75288853E-5	8.89919834E-5	4.75892959E-4
4.05679000E+5	2.30000877E+1	-5.30000000E+0	3.05000000E+1	1.61451389E-5	1.12464620E-5	3.40842377E-5	2.77193162E-5	8.91951548E-5	4.76979437E-4
4.12259000E+5	2.39996025E+1	-5.30000000E+0	3.05000000E+1	1.62352134E-5	1.12822725E-5	3.43716811E-5	2.78397295E-5	8.97288966E-5	4.79833672E-4
4.17855000E+5	2.50001898E+1	-5.30000000E+0	3.05000000E+1	1.61483963E-5	1.13348378E-5	3.46078974E-5	2.77805183E-5	8.98716497E-5	4.80597057E-4
4.22885000E+5	2.60001583E+1	-5.30000000E+0	3.05000000E+1	1.60373796E-5	1.12230791E-5	3.42490982E-5	2.79554818E-5	8.94650387E-5	4.78422667E-4
4.27922000E+5	2.69998017E+1	-5.30000000E+0	3.05000000E+1	1.62861098E-5	1.12642391E-5	3.44103586E-5	2.79151086E-5	8.98758161E-5	4.80619337E-4
4.32799000E+5	2.79999811E+1	-5.30000000E+0	3.05000000E+1	1.62331869E-5	1.11845298E-5	3.44294053E-5	2.77386341E-5	8.95857560E-5	4.79068214E-4
4.37864000E+5	2.90002164E+1	-5.30000000E+0	3.05000000E+1	1.61687662E-5	1.11908658E-5	3.42002164E-5	2.76581142E-5	8.92179625E-5	4.77101404E-4
4.42592000E+5	2.99998797E+1	-5.30000000E+0	3.05000000E+1	1.62473042E-5	1.12480624E-5	3.41861259E-5	2.78263125E-5	8.95078051E-5	4.78651364E-4
4.47358000E+5	3.10001660E+1	-5.30000000E+0	3.05000000E+1	1.59656663E-5	1.12808390E-5	3.44511639E-5	2.78541777E-5	8.95518469E-5	4.78886882E-4
4.51951000E+5	3.20001102E+1	-5.30000000E+0	3.05000000E+1	1.61791851E-5	1.12171365E-5	3.44237160E-5	2.76325944E-5	8.94526320E-5	4.78356321E-4
4.56584000E+5	3.29999293E+1	-5.30000000E+0	3.05000000E+1	1.62624855E-5	1.12055851E-5	3.41743927E-5	2.79115144E-5	8.95539778E-5	4.78898277E-4
4.61038000E+5	3.40002650E+1	-5.30000000E+0	3.05000000E+1	1.61256213E-5	1.12334324E-5	3.43447994E-5	2.78060946E-5	8.95099478E-5	4.78662823E-4
4.65685000E+5	3.50003689E+1	-5.30000000E+0	3.05000000E+1	1.63116176E-5	1.12752749E-5	3.41180246E-5	2.78935048E-5	8.95984220E-5	4.79135947E-4
4.70145000E+5	3.59999900E+1	-5.30000000E+0	3.05000000E+1	1.62227561E-5	1.12228407E-5	3.42193585E-5	2.78274003E-5	8.94923555E-5	4.78568746E-4
4.74336000E+5	3.69999038E+1	-5.30000000E+0	3.05000000E+1	1.61433299E-5	1.12620963E-5	3.42239898E-5	2.78765384E-5	8.95059543E-5	4.78641467E-4
4.78676000E+5	3.80001112E+1	-5.30000000E+0	3.05000000E+1	1.61310603E-5	1.12788601E-5	3.43406331E-5	2.78114561E-5	8.95620095E-5	4.78941227E-4
4.82834000E+5	3.90000141E+1	-5.30000000E+0	3.05000000E+1	1.61695976E-5	1.12353308E-5	3.44067525E-5	2.79448394E-5	8.97565204E-5	4.79981392E-4
4.87157000E+5	4.00001537E+1	-5.30000000E+0	3.05000000E+1	1.61403556E-5	1.12793697E-5	3.44734203E-5	2.79386077E-5	8.98317534E-5	4.80383708E-4
4.91198000E+5	4.09993019E+1	-5.30000000E+0	3.05000000E+1	1.62173201E-5	1.13016470E-5	3.43881708E-5	2.77162704E-5	8.96234083E-5	4.79269563E-4
4.95976000E+5	4.20004332E+1	-5.30000000E+0	3.05000000E+1	1.62878503E-5	1.12364306E-5	3.43198817E-5	2.78948161E-5	8.97389787E-5	4.79887587E-4
5.00010000E+5	4.29997956E+1	-5.30000000E+0	3.05000000E+1	1.62370642E-5	1.12957014E-5	3.41152023E-5	2.78617952E-5	8.95097631E-5	4.78661835E-4
5.04032000E+5	4.40000483E+1	-5.30000000E+0	3.05000000E+1	1.62669142E-5	1.12877978E-5	3.43040209E-5	2.78067503E-5	8.96654832E-5	4.79494563E-4
5.08238000E+5	4.50002392E+1	-5.30000000E+0	3.05000000E+1	1.63147052E-5	1.11552252E-5	3.44871622E-5	2.77074847E-5	8.96645772E-5	4.79489718E-4
5.28677000E+5	2.30003039E+1	-5.30000000E+0	3.05000000E+1	1.61899795E-5	1.12239106E-5	3.39681874E-5	2.79047165E-5	8.92867940E-5	4.77469487E-4
5.35685000E+5	2.39999790E+1	-5.30000000E+0	3.05000000E+1	1.61609371E-5	1.12388237E-5	3.43406569E-5	2.76422474E-5	8.93826651E-5	4.77982166E-4
5.41281000E+5	2.49998323E+1	-5.30000000E+0	3.05000000E+1	1.62267853E-5	1.11901595E-5	3.43240093E-5	2.75598440E-5	8.93007981E-5	4.77544375E-4
5.46355000E+5	2.60001583E+1	-5.30000000E+0	3.05000000E+1	1.59771223E-5	1.12079366E-5	3.43941193E-5	2.77166400E-5	8.92958181E-5	4.77517744E-4
5.51392000E+5	2.69998613E+1	-5.30000000E+0	3.05000000E+1	1.60276969E-5	1.12559958E-5	3.42542481E-5	2.76285830E-5	8.91665237E-5	4.76826330E-4
5.56308000E+5	2.80001092E+1	-5.30000000E+0	3.05000000E+1	1.61258896E-5	1.12887426E-5	3.42820775E-5	2.76571068E-5	8.93538164E-5	4.77827895E-4
5.61264000E+5	2.89997354E+1	-5.30000000E+0	3.05000000E+1	1.61366601E-5	1.13020523E-5	3.42334252E-5	2.77469847E-5	8.94191223E-5	4.78177124E-4
5.66035000E+5	3.00003945E+1	-5.30000000E+0	3.05000000E+1	1.61624630E-5	1.12228347E-5	3.41564517E-5	2.78266701E-5	8.93684196E-5	4.77905987E-4
5.70803000E+5	3.10000090E+1	-5.30000000E+0	3.05000000E+1	1.62015994E-5	1.12462981E-5	3.42823248E-5	2.76805464E-5	8.94107687E-5	4.78132453E-4
5.75418000E+5	3.20001939E+1	-5.30000000E+0	3.05000000E+1	1.61362608E-5	1.12310632E-5	3.42263441E-5	2.77567897E-5	8.93504577E-5	4.77809934E-4
5.80080000E+5	3.30000182E+1	-5.30000000E+0	3.05000000E+1	1.61319871E-5	1.12100704E-5	3.41951977E-5	2.77725938E-5	8.93098491E-5	4.77592776E-4
5.84535000E+5	3.39999816E+1	-5.30000000E+0	3.05000000E+1	1.60976936E-5	1.12754329E-5	3.42140388E-5	2.76020709E-5	8.91892361E-5	4.76947786E-4
5.89177000E+5	3.49999685E+1	-5.30000000E+0	3.05000000E+1	1.63099577E-5	1.12600668E-5	3.42238854E-5	2.76182982E-5	8.94122081E-5	4.78140150E-4
5.93565000E+5	3.59994605E+1	-5.30000000E+0	3.05000000E+1	1.62897040E-5	1.12472548E-5	3.43043636E-5	2.76392999E-5	8.94806223E-5	4.78506002E-4
5.97764000E+5	3.70006869E+1	-5.30000000E+0	3.05000000E+1	1.62675191E-5	1.13072260E-5	3.41670912E-5	2.78847936E-5	8.96266299E-5	4.79286791E-4
6.02076000E+5	3.80002292E+1	-5.30000000E+0	3.05000000E+1	1.62071277E-5	1.12485094E-5	3.42281233E-5	2.77216557E-5	8.94054162E-5	4.78103830E-4
6.06233000E+5	3.89998898E+1	-5.30000000E+0	3.05000000E+1	1.63432707E-5	1.12109764E-5	3.40486478E-5	2.78321568E-5	8.94350516E-5	4.78262308E-4
6.10614000E+5	4.00002844E+1	-5.30000000E+0	3.05000000E+1	1.61142458E-5	1.11922307E-5	3.43716960E-5	2.74340454E-5	8.91122179E-5	4.76535925E-4
6.14665000E+5	4.09995766E+1	-5.30000000E+0	3.05000000E+1	1.62051697E-5	1.12825675E-5	3.43326520E-5	2.77525994E-5	8.95729887E-5	4.78999940E-4
6.18704000E+5	4.19998567E+1	-5.30000000E+0	3.05000000E+1	1.61922504E-5	1.12549736E-5	3.44774109E-5	2.77308318E-5	8.96554666E-5	4.79440998E-4
6.22728000E+5	4.30000978E+1	-5.30000000E+0	3.05000000E+1	1.62656654E-5	1.12794502E-5	3.43021374E-5	2.79183361E-5	8.97655892E-5	4.80029889E-4
6.26759000E+5	4.40003647E+1	-5.30000000E+0	3.05000000E+1	1.61892314E-5	1.11953153E-5	3.41481220E-5	2.75465939E-5	8.90792625E-5	4.76359693E-4
6.30960000E+5	4.50002392E+1	-5.30000000E+0	3.05000000E+1	1.61188026E-5	1.12457885E-5	3.40512376E-5	2.77629349E-5	8.91787635E-5	4.76891784E-4
