G:\BEAR_storage\User_Experiments\20220108_arneodo\Bpm\file(1)_bpm_0036.txt
Ring Energy (GeV): 2
Lifetime (hours): 0
Scan beginning: 8/2/2022	2:07:01 PM
Ring current (mA): 308.98
Source position: x (mm): -0.005 x' (mrad): 0.004 y (mm): -0.003 y' (mrad): 0
Scan end: 8/2/2022	2:18:43 PM
Ring current (mA): 308.43
Source position: x (mm): -0.006 x' (mrad): 0.005 y (mm): -0.004 y' (mrad): 0

SCAN TYPE: PHOTON ENERGY VS VAR_1 VS VAR_2

FILE INFO: FILE INFO:

SCAN PARAMETERS
waiting time (ms): 1000
Number of scans: 1
Current scan number: 1
DARK OFF 
PREDARK OFF 

SCAN PARAMETERS
Regions configuration: 
number of regions: 7
Mirror grating scan: on
Timed acquisition: off
Region 1:
Initial energy (eV): 3.000000
Final energy (eV): 4.500000
Delta energy (eV): 1.000000
Deviation angle choice: Degrees: 
Deviation angle (°): NaN
B270 window
GNIM channel
range keithley B 200 pA
range keithley C 2 uA
range keithley A 200 pA
Var_1: XM4.000000
Var_2: YM12.000000
Bias CEM (V): 0.000000
Bias Keithley B (V): -30.000000
Name region: 
Region 2:
Initial energy (eV): 4.000000
Final energy (eV): 8.000000
Delta energy (eV): 1.000000
Deviation angle choice: Degrees: 
Deviation angle (°): NaN
SiO2 window
GNIM channel
range keithley B 200 pA
range keithley C 2 uA
range keithley A 200 pA
Var_1: XM4.000000
Var_2: YM12.000000
Bias CEM (V): 0.000000
Bias Keithley B (V): -30.000000
Name region: 
Region 3:
Initial energy (eV): 7.000000
Final energy (eV): 12.000000
Delta energy (eV): 1.000000
Deviation angle choice: Degrees: 
Deviation angle (°): NaN
filter LiF window
GNIM channel
range keithley B 200 pA
range keithley C 2 uA
range keithley A 200 pA
Var_1: XM4.000000
Var_2: YM12.000000
Bias CEM (V): 0.000000
Bias Keithley B (V): -30.000000
Name region: 
Region 4:
Initial energy (eV): 11.000000
Final energy (eV): 18.000000
Delta energy (eV): 1.000000
Deviation angle choice: Degrees: 
Deviation angle (°): NaN
In filter
GNIM channel
range keithley B 200 pA
range keithley C 2 uA
range keithley A 200 pA
Var_1: XM4.000000
Var_2: YM12.000000
Bias CEM (V): 0.000000
Bias Keithley B (V): -30.000000
Name region: 
Region 5:
Initial energy (eV): 15.000000
Final energy (eV): 25.000000
Delta energy (eV): 1.000000
Deviation angle choice: Degrees: 
Deviation angle (°): NaN
Sn filter
GNIM channel
range keithley B 200 pA
range keithley C 2 uA
range keithley A 20 nA
Var_1: XM4.000000
Var_2: YM12.000000
Bias CEM (V): 0.000000
Bias Keithley B (V): -30.000000
Name region: 
Region 6:
Initial energy (eV): 23.000000
Final energy (eV): 45.000000
Delta energy (eV): 1.000000
Deviation angle choice: Degrees: 
Deviation angle (°): NaN
Full Beam
GNIM channel
range keithley B 200 pA
range keithley C 2 uA
range keithley A 20 nA
Var_1: XM4.000000
Var_2: YM12.000000
Bias CEM (V): 0.000000
Bias Keithley B (V): -30.000000
Name region: 
Region 7:
Initial energy (eV): 23.000000
Final energy (eV): 45.000000
Delta energy (eV): 1.000000
Deviation angle choice: Degrees: 
Deviation angle (°): NaN
Al filter
GNIM channel
range keithley B 200 pA
range keithley C 2 uA
range keithley A 20 nA
Var_1: XM4.000000
Var_2: YM12.000000
Bias CEM (V): 0.000000
Bias Keithley B (V): -30.000000
Name region: 

BEAR MONOCHROMATOR CONFIGURATION: 
Current Grating Position:     160136.90
Current Mirror Position: 298443.7
Current Grating: GNIM
P2 phiz position:  0.0000
Mono axis position: 73.5000
Current Photon Energy (eV): 18.234
Current Deviation Angle: 29.905
Vertical Exit Slits (um): 450.000
Exit slit y axis position: 2.2375
Horizontal Exit Slits (um):  890.000
Exit slit z axis position: 1.9250
Mitutoyo position (mm): 

Dose on sample (mJ/cm^2): NaN

ENERGY CALIBRATION:
offset grating G1200: yes
Delta 0 order G1200:  -500.0
offset grating G1800: not
Delta 0 order G1800:  0.0
offset grating GNIM: not
Delta 0 order GNIM:  0.0
ZERO ORDER POSITIONS:
Grating G1200: Mirror position:  4938.0
Grating position: -105355.0
Grating G1800: 
Mirror position:  4938.0
Grating position: -106345.0
Grating GNIM: 
Mirror position:  10000.0
Grating position: 227300.0

Initial filter: Full Beam

EXPERIMENTAL CHAMBER CONFIGURATION: 
PsiC (deg):   0.036413
Phi Analyzer (degrees): -0.009471
Theta Manipulator (degrees): -45.000040
Theta Analyzer (degrees): -0.000455
PhiM (degrees): -0.005129
XM (mm): 4.000063
YM (mm): 11.999937
ZM (mm): (Warning: for kinetic energy scans, 
this parameter is given in the scan settings) 
-8.300100
TiltM (°): -0.000275

COIL VALUES
Ix (amps):2.950
Iy (amps): 6.790
Iz (amps): 14.440

POLARIZATION SELECTOR CONFIGURATION:
Psi1 (rad): -0.001665535
Psi2 (rad): 0.001417093
Z min position (mm): 46.599650
DZ position (mm): 18.599100
Zmin 0 (mm): 66.500000
DZ0 (mm): 53.000000

BEAM SELECTOR CONFIGURATION:
Zmin position (mm): 158.000000
DZ position (mm): 264.000000
Y+ position (mm): 291.700000
Y- position (mm): NaN

CHANNEL ELECTRON MULTIPLIER CONFIGURATION:
CEM configured: OFF
Bias CEM: 0.000000

FLUORESCENCE DETECTOR CONFIGURATION:
Not configured

LUMINESCENCE MONOCHROMATOR CONFIGURATION:
Optical fiber position (mm): 0.000000
Optical fiber Switch inside: OFF
Optical fiber Switch outside: ON
Monochromator wavelength (A): 229000.000000
Limit Switches: OFF

I0 MONITOR PARAMETERS:
I0 detector position(mm): -0.000000E+0
Lower switch: OFF
Upper switch: OFF
Valve status:open

PRESSURE PARAMETERS:
Monitor chamber pressure (mbar): 1.418e-09
Experimental chamber pressure -ION GAUGE-(mbar): 0.000000E+0

XMCD PARAMETERS:
Xmcd OFF
Xmcd Direction -
Xmcd current (A): 0.000000

Gated scan off

Instrument 1: AMMETER KEITHLEY 6517A B
Measure type: Current
range type: set range value
range value (ampere):  200 nA
Integration time:  set NPLC value
NPLC value: 10.000
Digital filter count: 2
SAMPLE BIAS (V): -30.000
Vsource: ON
Output Voltage value: 30.000
Vsource range: 1000 V

Range Keithley B changed to 20 nA

Range Keithley B changed to 200 nA

Range Keithley B changed to 200 pA

Range Keithley B changed to 20 nA

Range Keithley B changed to 200 pA

Range Keithley B changed to 20 nA

Range Keithley B changed to 200 nA

Range Keithley B changed to 200 pA

Range Keithley B changed to 20 nA

Range Keithley B changed to 200 pA

Range Keithley B changed to 20 nA

Range Keithley B changed to 200 pA

Range Keithley B changed to 20 nA

Range Keithley B changed to 200 pA

Range Keithley B changed to 20 nA

Range Keithley B changed to 200 nA

Range Keithley B changed to 200 pA

Range Keithley B changed to 20 nA

Range Keithley B changed to 200 pA

Instrument 2: AMMETER KEITHLEY 6517A A
Measure type: Current
range type: set range value
range value (ampere):  20 nA
Integration time:  set NPLC value
NPLC value: 10.000
Digital filter count: 2
Vsource: OFF
Output Voltage value: -0.000
Vsource range: 100 V
Trigger source: bus

Range Keithley A changed to 200 nA

Range Keithley A changed to 20 nA

Range Keithley A changed to 200 nA

Range Keithley A changed to 20 nA

Range Keithley A changed to 200 nA

Range Keithley A changed to 20 nA

Range Keithley A changed to 200 nA

Range Keithley A changed to 200 pA

Range Keithley A changed to 20 nA

Instrument 3: None


________________________________________________________________________________

RelativeTime (msec)	Photon Energy	Var_1	Var_2	a) I_1 (Amps)	b) I_2 (Amps)	d) I_3 (Amps)	c) I_4 (Amps)	I_BPM_sum (Amps)	Delta Z(mm)	
________________________________________________________________________________

8.26300000E+3	2.99999498E+0	4.00000000E+0	1.20000000E+1	1.62784536E-5	1.12787171E-5	3.41634016E-5	2.76975277E-5	8.94181000E-5	4.78171658E-4
5.10180000E+4	3.99999645E+0	4.00000000E+0	1.20000000E+1	1.62158300E-5	1.12574919E-5	3.42440884E-5	2.77667764E-5	8.94841867E-5	4.78525063E-4
6.42320000E+4	4.00000691E+0	4.00000000E+0	1.20000000E+1	1.61300291E-5	1.12512036E-5	3.43147378E-5	2.77360681E-5	8.94320386E-5	4.78246196E-4
9.24060000E+4	4.99998192E+0	4.00000000E+0	1.20000000E+1	1.61188562E-5	1.12811311E-5	3.44389986E-5	2.79591773E-5	8.97981632E-5	4.80204081E-4
1.12741000E+5	5.99999527E+0	4.00000000E+0	1.20000000E+1	1.61932309E-5	1.12905367E-5	3.43687069E-5	2.77505461E-5	8.96030205E-5	4.79160537E-4
1.29273000E+5	6.99999197E+0	4.00000000E+0	1.20000000E+1	1.61198784E-5	1.12877055E-5	3.40020131E-5	2.74897906E-5	8.88993876E-5	4.75397795E-4
1.43438000E+5	8.00001803E+0	4.00000000E+0	1.20000000E+1	1.61983062E-5	1.12091942E-5	3.42914145E-5	2.76059958E-5	8.93049108E-5	4.77566368E-4
1.65295000E+5	7.00001199E+0	4.00000000E+0	1.20000000E+1	1.61755223E-5	1.13262339E-5	3.42255425E-5	2.77594361E-5	8.94867348E-5	4.78538689E-4
1.80899000E+5	7.99999188E+0	4.00000000E+0	1.20000000E+1	1.63421591E-5	1.12203224E-5	3.44123583E-5	2.75941554E-5	8.95689952E-5	4.78978584E-4
1.93460000E+5	8.99993910E+0	4.00000000E+0	1.20000000E+1	1.60542388E-5	1.11906244E-5	3.41253470E-5	2.76274446E-5	8.89976548E-5	4.75923288E-4
2.04986000E+5	1.00000235E+1	4.00000000E+0	1.20000000E+1	1.61137779E-5	1.11835523E-5	3.42747610E-5	2.76806358E-5	8.92527269E-5	4.77287310E-4
2.15687000E+5	1.10000237E+1	4.00000000E+0	1.20000000E+1	1.62185271E-5	1.12010999E-5	3.41360669E-5	2.75000247E-5	8.90557187E-5	4.76233790E-4
2.25685000E+5	1.19999706E+1	4.00000000E+0	1.20000000E+1	1.62032713E-5	1.12125291E-5	3.42979532E-5	2.76089314E-5	8.93226849E-5	4.77661417E-4
2.42422000E+5	1.10000040E+1	4.00000000E+0	1.20000000E+1	1.62569900E-5	1.12364395E-5	3.43252938E-5	2.75775734E-5	8.93962967E-5	4.78055062E-4
2.53832000E+5	1.19999706E+1	4.00000000E+0	1.20000000E+1	1.62464996E-5	1.12694187E-5	3.42555325E-5	2.78678003E-5	8.96392512E-5	4.79354284E-4
2.63722000E+5	1.29999327E+1	4.00000000E+0	1.20000000E+1	1.61770095E-5	1.12739725E-5	3.43126248E-5	2.79053036E-5	8.96689105E-5	4.79512890E-4
2.72988000E+5	1.39999968E+1	4.00000000E+0	1.20000000E+1	1.61813874E-5	1.11992909E-5	3.42273485E-5	2.76207748E-5	8.92288016E-5	4.77159367E-4
2.81983000E+5	1.50000022E+1	4.00000000E+0	1.20000000E+1	1.62918140E-5	1.12746491E-5	3.43687873E-5	2.75047126E-5	8.94399630E-5	4.78288572E-4
2.90294000E+5	1.60000424E+1	4.00000000E+0	1.20000000E+1	1.63442661E-5	1.12305476E-5	3.42366319E-5	2.79649768E-5	8.97764224E-5	4.80087820E-4
2.98388000E+5	1.69999764E+1	4.00000000E+0	1.20000000E+1	1.63051774E-5	1.12516595E-5	3.43551081E-5	2.77995649E-5	8.97115099E-5	4.79740695E-4
3.06496000E+5	1.79999259E+1	4.00000000E+0	1.20000000E+1	1.62192334E-5	1.12671687E-5	3.42013906E-5	2.76856843E-5	8.93734770E-5	4.77933032E-4
3.26330000E+5	1.50001309E+1	4.00000000E+0	1.20000000E+1	1.61041577E-5	1.13046511E-5	3.44811928E-5	2.77294222E-5	8.96194237E-5	4.79248255E-4
3.36063000E+5	1.60000215E+1	4.00000000E+0	1.20000000E+1	1.60742511E-5	1.12510844E-5	3.41653418E-5	2.77882341E-5	8.92789113E-5	4.77427333E-4
3.44167000E+5	1.69998111E+1	4.00000000E+0	1.20000000E+1	1.62034203E-5	1.13168730E-5	3.42778336E-5	2.76648972E-5	8.94630241E-5	4.78411893E-4
3.52312000E+5	1.80000583E+1	4.00000000E+0	1.20000000E+1	1.61805828E-5	1.12470193E-5	3.41470878E-5	2.77579400E-5	8.93326300E-5	4.77714599E-4
3.60215000E+5	1.90001262E+1	4.00000000E+0	1.20000000E+1	1.61647995E-5	1.12065656E-5	3.43282085E-5	2.75212351E-5	8.92208087E-5	4.77116624E-4
3.68061000E+5	1.99999916E+1	4.00000000E+0	1.20000000E+1	1.62768562E-5	1.12720414E-5	3.41832202E-5	2.77510229E-5	8.94831406E-5	4.78519469E-4
3.75182000E+5	2.10000866E+1	4.00000000E+0	1.20000000E+1	1.62688841E-5	1.12162812E-5	3.41254960E-5	2.78678957E-5	8.94785570E-5	4.78494957E-4
3.82093000E+5	2.20000001E+1	4.00000000E+0	1.20000000E+1	1.62597288E-5	1.12551762E-5	3.44096761E-5	2.76750151E-5	8.95995962E-5	4.79142226E-4
3.89078000E+5	2.29998716E+1	4.00000000E+0	1.20000000E+1	1.62286629E-5	1.12334086E-5	3.42761289E-5	2.76064488E-5	8.93446492E-5	4.77778873E-4
3.95934000E+5	2.40001673E+1	4.00000000E+0	1.20000000E+1	1.61711772E-5	1.12808032E-5	3.43382429E-5	2.77239177E-5	8.95141410E-5	4.78685246E-4
4.02835000E+5	2.49997812E+1	4.00000000E+0	1.20000000E+1	1.63489242E-5	1.12382068E-5	3.43318831E-5	2.78590027E-5	8.97780168E-5	4.80096346E-4
4.18354000E+5	2.30002606E+1	4.00000000E+0	1.20000000E+1	1.63081993E-5	1.12863763E-5	3.41936271E-5	2.75598827E-5	8.93480854E-5	4.77797248E-4
4.26530000E+5	2.40001202E+1	4.00000000E+0	1.20000000E+1	1.63999845E-5	1.12679167E-5	3.42350166E-5	2.76936355E-5	8.95965534E-5	4.79125954E-4
4.33421000E+5	2.49998834E+1	4.00000000E+0	1.20000000E+1	1.61453505E-5	1.13507880E-5	3.43000065E-5	2.77529213E-5	8.95490664E-5	4.78872013E-4
4.39751000E+5	2.60001031E+1	4.00000000E+0	1.20000000E+1	1.62323256E-5	1.12589552E-5	3.41451537E-5	2.77315024E-5	8.93679368E-5	4.77903405E-4
4.46125000E+5	2.70000995E+1	4.00000000E+0	1.20000000E+1	1.61918242E-5	1.12481906E-5	3.41060500E-5	2.75968734E-5	8.91429382E-5	4.76700204E-4
4.52331000E+5	2.79999811E+1	4.00000000E+0	1.20000000E+1	1.62886252E-5	1.12804814E-5	3.41704737E-5	2.77886692E-5	8.95282494E-5	4.78760692E-4
4.58566000E+5	2.89996667E+1	4.00000000E+0	1.20000000E+1	1.61678453E-5	1.12683071E-5	3.41242712E-5	2.76621285E-5	8.92225521E-5	4.77125947E-4
4.64609000E+5	3.00004681E+1	4.00000000E+0	1.20000000E+1	1.60173316E-5	1.13193645E-5	3.42797380E-5	2.78117422E-5	8.94281762E-5	4.78225541E-4
4.70076000E+5	3.10000875E+1	4.00000000E+0	1.20000000E+1	1.62661125E-5	1.12398668E-5	3.41929208E-5	2.75607529E-5	8.92596530E-5	4.77324348E-4
4.75976000E+5	3.20000266E+1	4.00000000E+0	1.20000000E+1	1.61340345E-5	1.12101002E-5	3.42180442E-5	2.78403405E-5	8.94025194E-5	4.78088339E-4
4.81882000E+5	3.30002852E+1	4.00000000E+0	1.20000000E+1	1.62119766E-5	1.12431540E-5	3.41722827E-5	2.75508586E-5	8.91782718E-5	4.76889154E-4
4.87626000E+5	3.39998871E+1	4.00000000E+0	1.20000000E+1	1.61172648E-5	1.12663133E-5	3.43206208E-5	2.75429013E-5	8.92471003E-5	4.77257221E-4
4.93508000E+5	3.49999685E+1	4.00000000E+0	1.20000000E+1	1.61739786E-5	1.12654193E-5	3.40708684E-5	2.75819990E-5	8.90922653E-5	4.76429226E-4
4.99226000E+5	3.59997782E+1	4.00000000E+0	1.20000000E+1	1.61410172E-5	1.11955745E-5	3.42080813E-5	2.76629958E-5	8.92076688E-5	4.77046357E-4
5.04646000E+5	3.70006869E+1	4.00000000E+0	1.20000000E+1	1.62035574E-5	1.12092449E-5	3.40933483E-5	2.74923328E-5	8.89984833E-5	4.75927718E-4
5.10230000E+5	3.79996392E+1	4.00000000E+0	1.20000000E+1	1.62923922E-5	1.11053033E-5	3.41206234E-5	2.76266936E-5	8.91450124E-5	4.76711296E-4
5.15631000E+5	3.90003869E+1	4.00000000E+0	1.20000000E+1	1.62551333E-5	1.11923589E-5	3.42408668E-5	2.75180164E-5	8.92063754E-5	4.77039441E-4
5.21249000E+5	4.00001537E+1	4.00000000E+0	1.20000000E+1	1.61352296E-5	1.12393720E-5	3.41094028E-5	2.77471307E-5	8.92311352E-5	4.77171846E-4
5.26570000E+5	4.09994393E+1	4.00000000E+0	1.20000000E+1	1.62376483E-5	1.12398846E-5	3.42511725E-5	2.79311303E-5	8.96598357E-5	4.79464362E-4
5.32637000E+5	4.20001449E+1	4.00000000E+0	1.20000000E+1	1.61257674E-5	1.13493903E-5	3.43738537E-5	2.77854535E-5	8.96344649E-5	4.79328689E-4
5.37969000E+5	4.29996446E+1	4.00000000E+0	1.20000000E+1	1.62604262E-5	1.12481846E-5	3.42512946E-5	2.80113701E-5	8.97712755E-5	4.80060297E-4
5.43285000E+5	4.40009975E+1	4.00000000E+0	1.20000000E+1	1.62358005E-5	1.11793978E-5	3.44197642E-5	2.77161899E-5	8.95511525E-5	4.78883169E-4
5.48746000E+5	4.50000737E+1	4.00000000E+0	1.20000000E+1	1.63794895E-5	1.12438722E-5	3.44254445E-5	2.76925388E-5	8.97413450E-5	4.79900241E-4
5.70394000E+5	2.30003903E+1	4.00000000E+0	1.20000000E+1	1.60938580E-5	1.12708910E-5	3.41720592E-5	2.80369256E-5	8.95737338E-5	4.79003924E-4
5.78539000E+5	2.39999790E+1	4.00000000E+0	1.20000000E+1	1.61634524E-5	1.12571730E-5	3.42505436E-5	2.80365262E-5	8.97076952E-5	4.79720295E-4
5.85399000E+5	2.49998323E+1	4.00000000E+0	1.20000000E+1	1.62219425E-5	1.12425967E-5	3.44013672E-5	2.77054402E-5	8.95713466E-5	4.78991158E-4
5.91723000E+5	2.60001583E+1	4.00000000E+0	1.20000000E+1	1.62994047E-5	1.11872299E-5	3.43730282E-5	2.78051082E-5	8.96647709E-5	4.79490754E-4
5.98072000E+5	2.69999804E+1	4.00000000E+0	1.20000000E+1	1.63389017E-5	1.12600012E-5	3.44983619E-5	2.77982983E-5	8.98955631E-5	4.80724936E-4
6.04268000E+5	2.80000451E+1	4.00000000E+0	1.20000000E+1	1.62327547E-5	1.13747610E-5	3.41266136E-5	2.77201745E-5	8.94543039E-5	4.78365262E-4
6.10504000E+5	2.89997354E+1	4.00000000E+0	1.20000000E+1	1.62088264E-5	1.12590237E-5	3.42405390E-5	2.76012513E-5	8.93096404E-5	4.77591660E-4
6.16536000E+5	3.00002474E+1	4.00000000E+0	1.20000000E+1	1.62767370E-5	1.12806125E-5	3.42642318E-5	2.78199050E-5	8.96414864E-5	4.79366237E-4
6.22606000E+5	3.09999305E+1	4.00000000E+0	1.20000000E+1	1.61623765E-5	1.12831546E-5	3.43780201E-5	2.78787855E-5	8.97023368E-5	4.79691640E-4
6.28503000E+5	3.20001939E+1	4.00000000E+0	1.20000000E+1	1.62253071E-5	1.13391473E-5	3.43870174E-5	2.77218673E-5	8.96733391E-5	4.79536573E-4
6.34436000E+5	3.30001072E+1	4.00000000E+0	1.20000000E+1	1.61240239E-5	1.12985207E-5	3.43721133E-5	2.77791861E-5	8.95738440E-5	4.79004513E-4
6.40185000E+5	3.39999816E+1	4.00000000E+0	1.20000000E+1	1.63277496E-5	1.12902506E-5	3.44918054E-5	2.77163449E-5	8.98261505E-5	4.80353746E-4
6.46142000E+5	3.49999685E+1	4.00000000E+0	1.20000000E+1	1.61518563E-5	1.12733825E-5	3.43899023E-5	2.77151081E-5	8.95302492E-5	4.78771386E-4
6.51816000E+5	3.59997782E+1	4.00000000E+0	1.20000000E+1	1.62012954E-5	1.12584873E-5	3.44110679E-5	2.77773682E-5	8.96482187E-5	4.79402239E-4
6.57271000E+5	3.70003513E+1	4.00000000E+0	1.20000000E+1	1.61427517E-5	1.13181783E-5	3.40604078E-5	2.76306632E-5	8.91520010E-5	4.76748669E-4
6.62912000E+5	3.80001112E+1	4.00000000E+0	1.20000000E+1	1.62441541E-5	1.12533255E-5	3.44057482E-5	2.76697937E-5	8.95730215E-5	4.79000115E-4
6.68357000E+5	3.90000141E+1	4.00000000E+0	1.20000000E+1	1.61662866E-5	1.12016214E-5	3.42829179E-5	2.75746796E-5	8.92255055E-5	4.77141741E-4
6.73979000E+5	4.00004152E+1	4.00000000E+0	1.20000000E+1	1.62542988E-5	1.12642063E-5	3.42063319E-5	2.80252639E-5	8.97501009E-5	4.79947064E-4
6.79290000E+5	4.09993019E+1	4.00000000E+0	1.20000000E+1	1.61101629E-5	1.13666161E-5	3.43409639E-5	2.76913437E-5	8.95090866E-5	4.78658217E-4
6.84628000E+5	4.20005774E+1	4.00000000E+0	1.20000000E+1	1.62177999E-5	1.12871213E-5	3.41342281E-5	2.78411571E-5	8.94803064E-5	4.78504313E-4
6.89955000E+5	4.29999467E+1	4.00000000E+0	1.20000000E+1	1.62868340E-5	1.13250895E-5	3.42840355E-5	2.77019355E-5	8.95978945E-5	4.79133126E-4
6.95233000E+5	4.40003647E+1	4.00000000E+0	1.20000000E+1	1.61649306E-5	1.12262501E-5	3.42383962E-5	2.77287248E-5	8.93583017E-5	4.77851881E-4
7.00721000E+5	4.50000737E+1	4.00000000E+0	1.20000000E+1	1.62423839E-5	1.11954911E-5	3.42948031E-5	2.76942644E-5	8.94269424E-5	4.78218943E-4
