G:\BEAR_storage\User_Experiments\20220108_arneodo\Bpm\file(1)_bpm_0014.txt
Ring Energy (GeV): 2
Lifetime (hours): 13.355
Scan beginning: 8/1/2022	3:52:35 PM
Ring current (mA): 307.93
Source position: x (mm): -0.004 x' (mrad): 0.003 y (mm): -0.001 y' (mrad): 0.001
Scan end: 8/1/2022	4:02:22 PM
Ring current (mA): 308.7
Source position: x (mm): -0.006 x' (mrad): 0.004 y (mm): -0.001 y' (mrad): 0

SCAN TYPE: PHOTON ENERGY VS VAR_1 VS VAR_2

FILE INFO: FILE INFO:

SCAN PARAMETERS
waiting time (ms): 1000
Number of scans: 1
Current scan number: 1
DARK OFF 
PREDARK OFF 

SCAN PARAMETERS
Regions configuration: 
number of regions: 7
Mirror grating scan: on
Timed acquisition: off
Region 1:
Initial energy (eV): 3.000000
Final energy (eV): 4.500000
Delta energy (eV): 1.000000
Deviation angle choice: Degrees: 
Deviation angle (°): NaN
B270 window
GNIM channel
range keithley B 20 nA
range keithley C 2 uA
range keithley A 200 pA
Var_1: XM3.000000
Var_2: YM15.000000
Bias CEM (V): 0.000000
Bias Keithley B (V): -30.000000
Name region: 
Region 2:
Initial energy (eV): 4.000000
Final energy (eV): 8.000000
Delta energy (eV): 1.000000
Deviation angle choice: Degrees: 
Deviation angle (°): NaN
SiO2 window
GNIM channel
range keithley B 20 nA
range keithley C 2 uA
range keithley A 200 pA
Var_1: XM3.000000
Var_2: YM15.000000
Bias CEM (V): 0.000000
Bias Keithley B (V): -30.000000
Name region: 
Region 3:
Initial energy (eV): 7.000000
Final energy (eV): 12.000000
Delta energy (eV): 1.000000
Deviation angle choice: Degrees: 
Deviation angle (°): NaN
filter LiF window
GNIM channel
range keithley B 20 nA
range keithley C 2 uA
range keithley A 200 pA
Var_1: XM3.000000
Var_2: YM15.000000
Bias CEM (V): 0.000000
Bias Keithley B (V): -30.000000
Name region: 
Region 4:
Initial energy (eV): 11.000000
Final energy (eV): 18.000000
Delta energy (eV): 1.000000
Deviation angle choice: Degrees: 
Deviation angle (°): NaN
In filter
GNIM channel
range keithley B 20 nA
range keithley C 2 uA
range keithley A 200 pA
Var_1: XM3.000000
Var_2: YM15.000000
Bias CEM (V): 0.000000
Bias Keithley B (V): -30.000000
Name region: 
Region 5:
Initial energy (eV): 15.000000
Final energy (eV): 25.000000
Delta energy (eV): 1.000000
Deviation angle choice: Degrees: 
Deviation angle (°): NaN
Sn filter
GNIM channel
range keithley B 20 nA
range keithley C 2 uA
range keithley A 20 nA
Var_1: XM3.000000
Var_2: YM15.000000
Bias CEM (V): 0.000000
Bias Keithley B (V): -30.000000
Name region: 
Region 6:
Initial energy (eV): 23.000000
Final energy (eV): 45.000000
Delta energy (eV): 1.000000
Deviation angle choice: Degrees: 
Deviation angle (°): NaN
Full Beam
GNIM channel
range keithley B 20 nA
range keithley C 2 uA
range keithley A 20 nA
Var_1: XM3.000000
Var_2: YM15.000000
Bias CEM (V): 0.000000
Bias Keithley B (V): -30.000000
Name region: 
Region 7:
Initial energy (eV): 23.000000
Final energy (eV): 45.000000
Delta energy (eV): 1.000000
Deviation angle choice: Degrees: 
Deviation angle (°): NaN
Al filter
GNIM channel
range keithley B 20 nA
range keithley C 2 uA
range keithley A 20 nA
Var_1: XM3.000000
Var_2: YM15.000000
Bias CEM (V): 0.000000
Bias Keithley B (V): -30.000000
Name region: 

BEAR MONOCHROMATOR CONFIGURATION: 
Current Grating Position:     200056.80
Current Mirror Position: 10000.0
Current Grating: GNIM
P2 phiz position:  -0.0195
Mono axis position: 73.5000
Current Photon Energy (eV): 45.000
Current Deviation Angle: 29.905
Vertical Exit Slits (um): 450.000
Exit slit y axis position: 2.2375
Horizontal Exit Slits (um):  890.000
Exit slit z axis position: 1.9250
Mitutoyo position (mm): 

Dose on sample (mJ/cm^2): NaN

ENERGY CALIBRATION:
offset grating G1200: yes
Delta 0 order G1200:  -500.0
offset grating G1800: not
Delta 0 order G1800:  0.0
offset grating GNIM: not
Delta 0 order GNIM:  0.0
ZERO ORDER POSITIONS:
Grating G1200: Mirror position:  4938.0
Grating position: -105355.0
Grating G1800: 
Mirror position:  4938.0
Grating position: -106345.0
Grating GNIM: 
Mirror position:  10000.0
Grating position: 227300.0

Initial filter: Al filter

EXPERIMENTAL CHAMBER CONFIGURATION: 
PsiC (deg):   0.036413
Phi Analyzer (degrees): -0.009471
Theta Manipulator (degrees): -45.000040
Theta Analyzer (degrees): -0.000455
PhiM (degrees): -0.006155
XM (mm): -10.000000
YM (mm): 16.999950
ZM (mm): (Warning: for kinetic energy scans, 
this parameter is given in the scan settings) 
-8.300075
TiltM (°): -0.000275

COIL VALUES
Ix (amps):2.950
Iy (amps): 6.790
Iz (amps): 14.440

POLARIZATION SELECTOR CONFIGURATION:
Psi1 (rad): -0.001665535
Psi2 (rad): 0.001417093
Z min position (mm): 46.599650
DZ position (mm): 18.599100
Zmin 0 (mm): 66.500000
DZ0 (mm): 53.000000

BEAM SELECTOR CONFIGURATION:
Zmin position (mm): 158.000000
DZ position (mm): 264.000000
Y+ position (mm): 291.700000
Y- position (mm): NaN

CHANNEL ELECTRON MULTIPLIER CONFIGURATION:
CEM configured: OFF
Bias CEM: 0.000000

FLUORESCENCE DETECTOR CONFIGURATION:
Not configured

LUMINESCENCE MONOCHROMATOR CONFIGURATION:
Optical fiber position (mm): 0.000000
Optical fiber Switch inside: OFF
Optical fiber Switch outside: ON
Monochromator wavelength (A): 229000.000000
Limit Switches: OFF

I0 MONITOR PARAMETERS:
I0 detector position(mm): -0.000000E+0
Lower switch: OFF
Upper switch: OFF
Valve status:open

PRESSURE PARAMETERS:
Monitor chamber pressure (mbar): 1.775e-09
Experimental chamber pressure -ION GAUGE-(mbar): 0.000000E+0

XMCD PARAMETERS:
Xmcd OFF
Xmcd Direction -
Xmcd current (A): 0.000000

Gated scan on
Shutter open time (ms): 626730703
Shutter aperture time (ms): 577847

Instrument 1: AMMETER KEITHLEY 6517A B
Measure type: Current
range type: set range value
range value (ampere):  200 pA
Integration time:  set NPLC value
NPLC value: 10.000
Digital filter count: 2
SAMPLE BIAS (V): -30.000
Vsource: ON
Output Voltage value: 30.000
Vsource range: 1000 V

Range Keithley B changed to 20 nA

Range Keithley B changed to 200 pA

Range Keithley B changed to 20 nA

Range Keithley B changed to 200 pA

Range Keithley B changed to 20 nA

Range Keithley B changed to 200 pA

Range Keithley B changed to 20 nA

Range Keithley B changed to 200 pA

Range Keithley B changed to 20 nA

Range Keithley B changed to 200 nA

Range Keithley B changed to 20 nA

Range Keithley B changed to 200 nA

Range Keithley B changed to 200 pA

Range Keithley B changed to 20 nA

Range Keithley B changed to 200 pA

Range Keithley B changed to 20 nA

Range Keithley B changed to 200 pA

Range Keithley B changed to 20 nA

Instrument 2: AMMETER KEITHLEY 6517A A
Measure type: Current
range type: set range value
range value (ampere):  20 nA
Integration time:  set NPLC value
NPLC value: 10.000
Digital filter count: 2
Vsource: OFF
Output Voltage value: -0.000
Vsource range: 100 V
Trigger source: bus

Range Keithley A changed to 200 nA

Range Keithley A changed to 200 pA

Range Keithley A changed to 20 nA

Range Keithley A changed to 200 nA

Range Keithley A changed to 20 nA

Range Keithley A changed to 200 nA

Range Keithley A changed to 20 nA

Range Keithley A changed to 200 nA

Range Keithley A changed to 200 pA

Range Keithley A changed to 20 nA

Range Keithley A changed to 200 pA

Range Keithley A changed to 20 nA

Range Keithley A changed to 200 pA

Range Keithley A changed to 20 nA

Instrument 3: None


________________________________________________________________________________

RelativeTime (msec)	Photon Energy	Var_1	Var_2	a) I_1 (Amps)	b) I_2 (Amps)	d) I_3 (Amps)	c) I_4 (Amps)	I_BPM_sum (Amps)	Delta Z(mm)	
________________________________________________________________________________

1.05540000E+4	2.99999498E+0	3.00000000E+0	1.50000000E+1	1.63753678E-5	1.13765939E-5	3.38478188E-5	2.73811969E-5	8.89809774E-5	4.75834104E-4
5.33970000E+4	3.99999384E+0	3.00000000E+0	1.50000000E+1	1.64696892E-5	1.14179297E-5	3.38333796E-5	2.75022659E-5	8.92232644E-5	4.77129756E-4
6.65990000E+4	4.00000299E+0	3.00000000E+0	1.50000000E+1	1.64283802E-5	1.14065571E-5	3.39373957E-5	2.73629579E-5	8.91352909E-5	4.76659310E-4
9.47220000E+4	4.99997988E+0	3.00000000E+0	1.50000000E+1	1.64026608E-5	1.14201649E-5	3.39434068E-5	2.74979803E-5	8.92642128E-5	4.77348731E-4
1.15122000E+5	5.99999527E+0	3.00000000E+0	1.50000000E+1	1.64744844E-5	1.13967849E-5	3.39530479E-5	2.75572094E-5	8.93815266E-5	4.77976078E-4
1.31685000E+5	6.99997996E+0	3.00000000E+0	1.50000000E+1	1.64722015E-5	1.14223702E-5	3.39409004E-5	2.75917682E-5	8.94272404E-5	4.78220537E-4
1.45874000E+5	8.00000234E+0	3.00000000E+0	1.50000000E+1	1.65526738E-5	1.14194347E-5	3.39426558E-5	2.76597324E-5	8.95744967E-5	4.79008004E-4
1.67803000E+5	7.00000799E+0	3.00000000E+0	1.50000000E+1	1.63479944E-5	1.13937123E-5	3.38928233E-5	2.73345533E-5	8.89690833E-5	4.75770499E-4
1.83102000E+5	7.99995004E+0	3.00000000E+0	1.50000000E+1	1.63264354E-5	1.15044697E-5	3.39568506E-5	2.74534824E-5	8.92412381E-5	4.77225872E-4
1.95691000E+5	8.99999204E+0	3.00000000E+0	1.50000000E+1	1.64621373E-5	1.13630189E-5	3.39990895E-5	2.74673405E-5	8.92915862E-5	4.77495113E-4
2.07180000E+5	9.99999901E+0	3.00000000E+0	1.50000000E+1	1.65741016E-5	1.14662214E-5	3.37852578E-5	2.74669233E-5	8.92925041E-5	4.77500022E-4
2.17902000E+5	1.10000336E+1	3.00000000E+0	1.50000000E+1	1.64184262E-5	1.13554372E-5	3.37040763E-5	2.74430665E-5	8.89210062E-5	4.75513402E-4
2.27896000E+5	1.19999706E+1	3.00000000E+0	1.50000000E+1	1.63701256E-5	1.13284333E-5	3.37452273E-5	2.73204776E-5	8.87642638E-5	4.74675208E-4
2.44620000E+5	1.10000435E+1	3.00000000E+0	1.50000000E+1	1.64460589E-5	1.13718732E-5	3.36743067E-5	2.74017218E-5	8.88939606E-5	4.75368773E-4
2.56055000E+5	1.19999706E+1	3.00000000E+0	1.50000000E+1	1.63610001E-5	1.14387764E-5	3.38330816E-5	2.74090293E-5	8.90418874E-5	4.76159826E-4
2.65956000E+5	1.29999465E+1	3.00000000E+0	1.50000000E+1	1.63240810E-5	1.14300831E-5	3.37784569E-5	2.75014850E-5	8.90341060E-5	4.76118214E-4
2.75299000E+5	1.39999648E+1	3.00000000E+0	1.50000000E+1	1.64841463E-5	1.14550187E-5	3.41389399E-5	2.73777607E-5	8.94558656E-5	4.78373613E-4
2.84168000E+5	1.49998552E+1	3.00000000E+0	1.50000000E+1	1.64571066E-5	1.14055260E-5	3.39724849E-5	2.74043861E-5	8.92395037E-5	4.77216597E-4
2.92837000E+5	1.60001470E+1	3.00000000E+0	1.50000000E+1	1.64034148E-5	1.14285781E-5	3.39837979E-5	2.74184528E-5	8.92342435E-5	4.77188468E-4
3.01616000E+5	1.70000473E+1	3.00000000E+0	1.50000000E+1	1.63187464E-5	1.14633604E-5	3.39787285E-5	2.72040489E-5	8.89648842E-5	4.75748044E-4
3.09767000E+5	1.79998730E+1	3.00000000E+0	1.50000000E+1	1.63894822E-5	1.14661379E-5	3.40084683E-5	2.72816869E-5	8.91457753E-5	4.76715376E-4
3.28502000E+5	1.50001126E+1	3.00000000E+0	1.50000000E+1	1.64096166E-5	1.14795341E-5	3.41154884E-5	2.72313896E-5	8.92360287E-5	4.77198014E-4
3.36960000E+5	1.59999587E+1	3.00000000E+0	1.50000000E+1	1.63950016E-5	1.13652004E-5	3.38137667E-5	2.73552391E-5	8.89292078E-5	4.75557261E-4
3.43798000E+5	1.69997875E+1	3.00000000E+0	1.50000000E+1	1.64053638E-5	1.13520487E-5	3.39111577E-5	2.74231139E-5	8.90916841E-5	4.76426118E-4
3.50626000E+5	1.80000583E+1	3.00000000E+0	1.50000000E+1	1.63582434E-5	1.14565207E-5	3.39079212E-5	2.74615172E-5	8.91842025E-5	4.76920869E-4
3.57268000E+5	1.90002442E+1	3.00000000E+0	1.50000000E+1	1.63631429E-5	1.14268227E-5	3.39525174E-5	2.73618731E-5	8.91043561E-5	4.76493883E-4
3.63821000E+5	1.99999589E+1	3.00000000E+0	1.50000000E+1	1.65385773E-5	1.14707156E-5	3.39842539E-5	2.75216433E-5	8.95151901E-5	4.78690856E-4
3.69719000E+5	2.10000506E+1	3.00000000E+0	1.50000000E+1	1.64303442E-5	1.13724364E-5	3.40749871E-5	2.73769799E-5	8.92547475E-5	4.77298115E-4
3.75429000E+5	2.20001188E+1	3.00000000E+0	1.50000000E+1	1.64938917E-5	1.13546236E-5	3.39346777E-5	2.73373934E-5	8.91205864E-5	4.76580676E-4
3.81215000E+5	2.29998716E+1	3.00000000E+0	1.50000000E+1	1.63402100E-5	1.13785906E-5	3.37290566E-5	2.72842261E-5	8.87320833E-5	4.74503119E-4
3.86854000E+5	2.40000261E+1	3.00000000E+0	1.50000000E+1	1.64183517E-5	1.13816662E-5	3.38988672E-5	2.74690303E-5	8.91679155E-5	4.76833773E-4
3.92466000E+5	2.49999344E+1	3.00000000E+0	1.50000000E+1	1.63314332E-5	1.13858296E-5	3.39155685E-5	2.73968759E-5	8.90297072E-5	4.76094691E-4
4.06648000E+5	2.30003039E+1	3.00000000E+0	1.50000000E+1	1.63904984E-5	1.14374472E-5	3.39932125E-5	2.72555384E-5	8.90766965E-5	4.76345971E-4
4.13502000E+5	2.40002143E+1	3.00000000E+0	1.50000000E+1	1.64716442E-5	1.13882704E-5	3.38609974E-5	2.73755047E-5	8.90964167E-5	4.76451426E-4
4.19136000E+5	2.49998323E+1	3.00000000E+0	1.50000000E+1	1.64480259E-5	1.13730146E-5	3.39399706E-5	2.74097833E-5	8.91707944E-5	4.76849168E-4
4.24165000E+5	2.60002688E+1	3.00000000E+0	1.50000000E+1	1.64511045E-5	1.14299996E-5	3.40513717E-5	2.74931344E-5	8.94256102E-5	4.78211819E-4
4.29230000E+5	2.69998613E+1	3.00000000E+0	1.50000000E+1	1.63367589E-5	1.14427133E-5	3.39891772E-5	2.73755613E-5	8.91442107E-5	4.76707009E-4
4.34142000E+5	2.80000451E+1	3.00000000E+0	1.50000000E+1	1.64250393E-5	1.15036680E-5	3.38981609E-5	2.74392399E-5	8.92661082E-5	4.77358867E-4
4.39120000E+5	2.89998041E+1	3.00000000E+0	1.50000000E+1	1.63732071E-5	1.14202513E-5	3.40027134E-5	2.73361239E-5	8.91322957E-5	4.76643293E-4
4.43860000E+5	3.00003945E+1	3.00000000E+0	1.50000000E+1	1.63620402E-5	1.14455147E-5	3.39870583E-5	2.73999068E-5	8.91945200E-5	4.76976043E-4
4.48628000E+5	3.10001660E+1	3.00000000E+0	1.50000000E+1	1.63515408E-5	1.14859028E-5	3.41039758E-5	2.73379984E-5	8.92794179E-5	4.77430042E-4
4.53237000E+5	3.20002776E+1	3.00000000E+0	1.50000000E+1	1.64414068E-5	1.14161773E-5	3.38959138E-5	2.72959950E-5	8.90494930E-5	4.76200497E-4
4.57894000E+5	3.30000182E+1	3.00000000E+0	1.50000000E+1	1.63260897E-5	1.14048137E-5	3.40672921E-5	2.73520055E-5	8.91502010E-5	4.76739043E-4
4.62363000E+5	3.40001705E+1	3.00000000E+0	1.50000000E+1	1.64104660E-5	1.13686635E-5	3.38339429E-5	2.74444643E-5	8.90575366E-5	4.76243511E-4
4.67004000E+5	3.50002688E+1	3.00000000E+0	1.50000000E+1	1.63968910E-5	1.13305672E-5	3.37249409E-5	2.75384310E-5	8.89908301E-5	4.75886792E-4
4.71366000E+5	3.59995664E+1	3.00000000E+0	1.50000000E+1	1.64346774E-5	1.13697662E-5	3.39054685E-5	2.72589299E-5	8.89688419E-5	4.75769208E-4
4.75534000E+5	3.70005750E+1	3.00000000E+0	1.50000000E+1	1.63201620E-5	1.13984658E-5	3.38155668E-5	2.71713766E-5	8.87055711E-5	4.74361343E-4
4.79863000E+5	3.80001112E+1	3.00000000E+0	1.50000000E+1	1.63232465E-5	1.14337220E-5	3.38833194E-5	2.73111108E-5	8.89513986E-5	4.75675928E-4
4.84086000E+5	3.89998898E+1	3.00000000E+0	1.50000000E+1	1.64060523E-5	1.13967283E-5	3.38956337E-5	2.72443267E-5	8.89427410E-5	4.75629631E-4
4.88430000E+5	4.00001537E+1	3.00000000E+0	1.50000000E+1	1.63147231E-5	1.14306523E-5	3.39529316E-5	2.72699061E-5	8.89682131E-5	4.75765845E-4
4.92470000E+5	4.09994393E+1	3.00000000E+0	1.50000000E+1	1.65079196E-5	1.13995029E-5	3.40979945E-5	2.73341510E-5	8.93395679E-5	4.77751700E-4
4.97243000E+5	4.20004332E+1	3.00000000E+0	1.50000000E+1	1.63462986E-5	1.13677485E-5	3.38261555E-5	2.74115208E-5	8.89517235E-5	4.75677666E-4
5.01304000E+5	4.29997956E+1	3.00000000E+0	1.50000000E+1	1.63361897E-5	1.14000483E-5	3.37297331E-5	2.73381117E-5	8.88040827E-5	4.74888143E-4
5.05338000E+5	4.40002065E+1	3.00000000E+0	1.50000000E+1	1.64614190E-5	1.14358469E-5	3.38811647E-5	2.73117664E-5	8.90901970E-5	4.76418166E-4
5.09393000E+5	4.49999083E+1	3.00000000E+0	1.50000000E+1	1.62954111E-5	1.14541723E-5	3.39057426E-5	2.73172411E-5	8.89725672E-5	4.75789129E-4
5.29612000E+5	2.30003903E+1	3.00000000E+0	1.50000000E+1	1.63936456E-5	1.14212676E-5	3.39684735E-5	2.75689486E-5	8.93523353E-5	4.77819975E-4
5.36535000E+5	2.39999790E+1	3.00000000E+0	1.50000000E+1	1.65025641E-5	1.15230663E-5	3.39225869E-5	2.75278273E-5	8.94760447E-5	4.78481523E-4
5.42151000E+5	2.49999344E+1	3.00000000E+0	1.50000000E+1	1.64262195E-5	1.14560022E-5	3.40378027E-5	2.74171206E-5	8.93371450E-5	4.77738743E-4
5.47206000E+5	2.60001031E+1	3.00000000E+0	1.50000000E+1	1.64676865E-5	1.14617659E-5	3.39539777E-5	2.74399373E-5	8.93233674E-5	4.77665066E-4
5.52271000E+5	2.69997421E+1	3.00000000E+0	1.50000000E+1	1.62384827E-5	1.14082886E-5	3.40144913E-5	2.73163411E-5	8.89776038E-5	4.75816063E-4
5.57188000E+5	2.80001092E+1	3.00000000E+0	1.50000000E+1	1.63694818E-5	1.13969816E-5	3.40915959E-5	2.74880800E-5	8.93461394E-5	4.77786841E-4
5.61635000E+5	2.89997354E+1	3.00000000E+0	1.50000000E+1	1.63392384E-5	1.13734169E-5	3.40613078E-5	2.73499343E-5	8.91238974E-5	4.76598382E-4
5.66392000E+5	3.00006152E+1	3.00000000E+0	1.50000000E+1	1.64297630E-5	1.13815202E-5	3.39689444E-5	2.72975239E-5	8.90777515E-5	4.76351612E-4
5.71207000E+5	3.09999305E+1	3.00000000E+0	1.50000000E+1	1.62901659E-5	1.15336193E-5	3.40593766E-5	2.73636314E-5	8.92467933E-5	4.77255579E-4
5.75850000E+5	3.20001102E+1	3.00000000E+0	1.50000000E+1	1.64577891E-5	1.14145471E-5	3.40091776E-5	2.74856094E-5	8.93671232E-5	4.77899054E-4
5.80524000E+5	3.30001962E+1	3.00000000E+0	1.50000000E+1	1.64319594E-5	1.14980950E-5	3.37660770E-5	2.77110431E-5	8.94071745E-5	4.78113233E-4
2.14748365E+9	3.40000000E+1	3.00000000E+0	1.50000000E+1	1.63600077E-5	1.14616408E-5	3.41301750E-5	2.75832924E-5	8.95351159E-5	4.78797411E-4
