G:\BEAR_storage\User_Experiments\20220317_arneodo\Bpm\file(1)_bpm_0071.txt
Ring Energy (GeV): 2
Lifetime (hours): 0
Scan beginning: 3/21/2022	12:01:50 PM
Ring current (mA): 309.32
Source position: x (mm): 0.006 x' (mrad): 0 y (mm): -0 y' (mrad): 0.002
Scan end: 3/21/2022	12:09:42 PM
Ring current (mA): 309.08
Source position: x (mm): 0.007 x' (mrad): -0 y (mm): 0.002 y' (mrad): 0.002

SCAN TYPE: PHOTON ENERGY VS VAR_1 VS VAR_2

FILE INFO: FILE INFO:

SCAN PARAMETERS
waiting time (ms): 1000
Number of scans: 1
Current scan number: 1
DARK OFF 
PREDARK OFF 

SCAN PARAMETERS
Regions configuration: 
number of regions: 6
Mirror grating scan: on
Timed acquisition: off
Region 1:
Initial energy (eV): 40.000000
Final energy (eV): 72.000000
Delta energy (eV): 1.000000
Deviation angle choice: Higher order rejection
Deviation angle (°): NaN
Al filter
G1200 channel
range keithley B 20 nA
range keithley C 200 nA
range keithley A 20 nA
Var_1: PsiC 0.000000
Var_2: PhiM0.000000
Bias CEM (V): 0.000000
Bias Keithley B (V): -30.000000
Name region: 
Region 2:
Initial energy (eV): 70.000000
Final energy (eV): 102.000000
Delta energy (eV): 1.000000
Deviation angle choice: Higher order rejection
Deviation angle (°): NaN
Si filter
G1200 channel
range keithley B 20 nA
range keithley C 200 nA
range keithley A 20 nA
Var_1: PsiC 0.000000
Var_2: PhiM0.000000
Bias CEM (V): 0.000000
Bias Keithley B (V): -30.000000
Name region: 
Region 3:
Initial energy (eV): 98.000000
Final energy (eV): 260.000000
Delta energy (eV): 1.000000
Deviation angle choice: Higher order rejection
Deviation angle (°): NaN
Full Beam
G1200 channel
range keithley B 20 nA
range keithley C 200 nA
range keithley A 200 nA
Var_1: PsiC 0.000000
Var_2: PhiM0.000000
Bias CEM (V): 0.000000
Bias Keithley B (V): -30.000000
Name region: 
Region 4:
Initial energy (eV): 255.000000
Final energy (eV): 320.000000
Delta energy (eV): 1.000000
Deviation angle choice: Higher order rejection
Deviation angle (°): NaN
filter Ag 0.6 um
G1200 channel
range keithley B 200 pA
range keithley C 200 nA
range keithley A 200 pA
Var_1: PsiC 0.000000
Var_2: PhiM0.000000
Bias CEM (V): 0.000000
Bias Keithley B (V): -30.000000
Name region: 
Region 5:
Initial energy (eV): 315.000000
Final energy (eV): 1200.000000
Delta energy (eV): 5.000000
Deviation angle choice: Higher order rejection
Deviation angle (°): NaN
Full Beam
G1200 channel
range keithley B 20 nA
range keithley C 200 nA
range keithley A 20 nA
Var_1: PsiC 0.000000
Var_2: PhiM0.000000
Bias CEM (V): 0.000000
Bias Keithley B (V): -30.000000
Name region: 
Region 6:
Initial energy (eV): 1190.000000
Final energy (eV): 1500.000000
Delta energy (eV): 5.000000
Deviation angle choice: Higher order rejection
Deviation angle (°): NaN
filter Ag 0.6 um
G1200 channel
range keithley B 200 pA
range keithley C 200 nA
range keithley A 200 pA
Var_1: PsiC 0.000000
Var_2: PhiM0.000000
Bias CEM (V): 0.000000
Bias Keithley B (V): -30.000000
Name region: 

BEAR MONOCHROMATOR CONFIGURATION: 
Current Grating Position:     -151493.00
Current Mirror Position: 2556.9
Current Grating: G1200
P2 phiz position:  0.0000
Mono axis position: 25.0000
Current Photon Energy (eV): 119.998
Current Deviation Angle: 155.000
Vertical Exit Slits (um): 100.000
Exit slit y axis position: 1.3625
Horizontal Exit Slits (um):  889.156
Exit slit z axis position: 1.9229
Mitutoyo position (mm): 

Dose on sample (mJ/cm^2): NaN

ENERGY CALIBRATION:
offset grating G1200: yes
Delta 0 order G1200:  -1100.0
offset grating G1800: not
Delta 0 order G1800:  0.0
offset grating GNIM: not
Delta 0 order GNIM:  0.0
ZERO ORDER POSITIONS:
Grating G1200: Mirror position:  4938.0
Grating position: -105355.0
Grating G1800: 
Mirror position:  4938.0
Grating position: -106345.0
Grating GNIM: 
Mirror position:  10000.0
Grating position: 227300.0

Initial filter: Full Beam

EXPERIMENTAL CHAMBER CONFIGURATION: 
PsiC (deg):   -0.000186
Phi Analyzer (degrees): 89.992308
Theta Manipulator (degrees): -44.000040
Theta Analyzer (degrees): -135.001468
PhiM (degrees): -0.003077
XM (mm): -4.499188
YM (mm): 22.974263
ZM (mm): (Warning: for kinetic energy scans, 
this parameter is given in the scan settings) 
-14.001425
TiltM (°): 0.000138

ELECTRON ANALYZER CONFIGURATION: 
Current Kinetik energy (eV): 35.0
Mode: DE = COST
Pass Energy (eV):  100.000
CEM: ON
Bias Front-Back CEM (V): 3499.561
Bias Back-Collector CEM (V): 100.874
Bias Retard-Front CEM: 100.087COIL VALUES
Ix (amps):2.820
Iy (amps): 6.789
Iz (amps): 37.337

POLARIZATION SELECTOR CONFIGURATION:
Psi1 (rad): -0.001665535
Psi2 (rad): 0.001417093
Z min position (mm): 46.599650
DZ position (mm): 18.599100
Zmin 0 (mm): 66.500000
DZ0 (mm): 53.000000

BEAM SELECTOR CONFIGURATION:
Zmin position (mm): NaN
DZ position (mm): NaN
Y+ position (mm): NaN
Y- position (mm): NaN

CHANNEL ELECTRON MULTIPLIER CONFIGURATION:
CEM configured: OFF
Bias CEM: 0.000000

FLUORESCENCE DETECTOR CONFIGURATION:
Not configured

LUMINESCENCE MONOCHROMATOR CONFIGURATION:
Optical fiber position (mm): 0.000000
Optical fiber Switch inside: OFF
Optical fiber Switch outside: ON
Monochromator wavelength (A): 0.000000
Limit Switches: ON

I0 MONITOR PARAMETERS:
I0 detector position(mm): -1.924999E+2
Lower switch: OFF
Upper switch: OFF
Valve status:open

PRESSURE PARAMETERS:
Monitor chamber pressure (mbar): 9.44e-10
Experimental chamber pressure -ION GAUGE-(mbar): 0.000000E+0

XMCD PARAMETERS:
Xmcd OFF
Xmcd Direction -
Xmcd current (A): 0.000000

Gated scan off

Instrument 1: AMMETER KEITHLEY 6517A B
Measure type: Current
range type: set range value
range value (ampere):  20 nA
Integration time:  set NPLC value
NPLC value: 10.000
Digital filter count: 2
SAMPLE BIAS (V): -30.000
Vsource: ON
Output Voltage value: 30.000
Vsource range: 1000 V

Instrument 2: AMMETER KEITHLEY 6517A A
Measure type: Current
range type: set range value
range value (ampere):  200 nA
Integration time:  set NPLC value
NPLC value: 10.000
Digital filter count: 2
Vsource: OFF
Output Voltage value: -0.000
Vsource range: 100 V
Trigger source: bus

Range Keithley A changed to 20 nA

Range Keithley A changed to 200 nA

Range Keithley A changed to 200 pA

Range Keithley A changed to 20 nA

Range Keithley A changed to 200 pA

Range Keithley A changed to 20 nA

Range Keithley A changed to 200 nA

Range Keithley A changed to 200 pA

Range Keithley A changed to 20 nA

Range Keithley A changed to 200 pA

Range Keithley A changed to 20 nA

Range Keithley A changed to 200 nA

Range Keithley A changed to 200 pA

Range Keithley A changed to 20 nA

Range Keithley A changed to 200 pA

Range Keithley A changed to 20 nA

Range Keithley A changed to 200 pA

Range Keithley A changed to 20 nA

Range Keithley A changed to 200 pA

Range Keithley A changed to 20 nA

Range Keithley A changed to 200 pA

Range Keithley A changed to 20 nA

Range Keithley A changed to 200 nA

Range Keithley A changed to 200 pA

Range Keithley A changed to 20 nA

Range Keithley A changed to 200 pA

Range Keithley A changed to 20 nA

Range Keithley A changed to 200 nA

Range Keithley A changed to 200 pA

Range Keithley A changed to 20 nA

Range Keithley A changed to 200 nA

Range Keithley A changed to 200 pA

Range Keithley A changed to 20 nA

Range Keithley A changed to 200 pA

Range Keithley A changed to 20 nA

Range Keithley A changed to 200 pA

Range Keithley A changed to 20 nA

Range Keithley A changed to 200 nA

Range Keithley A changed to 200 pA

Range Keithley A changed to 20 nA

Range Keithley A changed to 200 pA

Range Keithley A changed to 20 nA

Range Keithley A changed to 200 nA

Range Keithley A changed to 20 nA

Range Keithley A changed to 200 nA

Range Keithley A changed to 200 pA

Range Keithley A changed to 20 nA

Range Keithley A changed to 200 nA

Range Keithley A changed to 2 uA

Range Keithley A changed to 20 nA

Range Keithley A changed to 200 nA

Range Keithley A changed to 2 uA

Range Keithley A changed to 20 nA

Range Keithley A changed to 200 nA

Range Keithley A changed to 200 pA

Range Keithley A changed to 2 uA

Range Keithley A changed to 20 nA

Range Keithley A changed to 200 nA

Range Keithley A changed to 200 pA

Range Keithley A changed to 20 nA

Range Keithley A changed to 2 uA

Range Keithley A changed to 20 nA

Range Keithley A changed to 200 nA

Range Keithley A changed to 20 nA

Range Keithley A changed to 200 nA

Range Keithley A changed to 200 pA

Range Keithley A changed to 2 uA

Range Keithley A changed to 20 nA

Range Keithley A changed to 200 nA

Range Keithley A changed to 20 nA

Range Keithley A changed to 200 nA

Range Keithley A changed to 200 pA

Range Keithley A changed to 20 nA

Range Keithley A changed to 200 nA

Range Keithley A changed to 20 nA

Range Keithley A changed to 200 nA

Range Keithley A changed to 200 pA

Range Keithley A changed to 20 nA

Range Keithley A changed to 200 nA

Range Keithley A changed to 200 pA

Range Keithley A changed to 20 nA

Range Keithley A changed to 200 pA

Range Keithley A changed to 20 nA

Range Keithley A changed to 200 pA

Range Keithley A changed to 20 nA

Range Keithley A changed to 200 pA

Range Keithley A changed to 20 nA

Range Keithley A changed to 200 pA

Range Keithley A changed to 20 nA

Range Keithley A changed to 200 nA

Range Keithley A changed to 2 uA

Range Keithley A changed to 20 uA

Range Keithley A changed to 200 uA

Range Keithley A changed to 20 nA

Range Keithley A changed to 200 nA

Range Keithley A changed to 200 pA

Range Keithley A changed to 20 nA

Range Keithley A changed to 200 pA

Range Keithley A changed to 20 nA

Range Keithley A changed to 200 nA

Instrument 3: COUNTER ORTEC 996Integration time (sec): 1.000


Range Keithley C changed to 200 nA


________________________________________________________________________________

RelativeTime (msec)	Photon Energy	Var_1	Var_2	a) I_1 (Amps)	b) I_2 (Amps)	d) I_3 (Amps)	c) I_4 (Amps)	I_BPM_sum (Amps)	Delta Z(mm)	
________________________________________________________________________________

5.87400000E+3	3.99998128E+1	0.00000000E+0	0.00000000E+0	1.40682923E-5	1.00375158E-5	3.57901556E-5	2.92207306E-5	8.91166942E-5	4.76559862E-4
1.24410000E+4	4.09996846E+1	0.00000000E+0	0.00000000E+0	1.40868889E-5	1.00348514E-5	3.59641088E-5	2.89265846E-5	8.90124338E-5	4.76002320E-4
1.75100000E+4	4.20000262E+1	0.00000000E+0	0.00000000E+0	1.40417980E-5	1.01386440E-5	3.61464424E-5	2.92883044E-5	8.96151888E-5	4.79225609E-4
2.25750000E+4	4.30000611E+1	0.00000000E+0	0.00000000E+0	1.40890645E-5	1.00536686E-5	3.58928574E-5	2.91420584E-5	8.91776489E-5	4.76885823E-4
2.76540000E+4	4.39999194E+1	0.00000000E+0	0.00000000E+0	1.40909093E-5	1.00337786E-5	3.59765006E-5	2.91097855E-5	8.92109739E-5	4.77064031E-4
3.26610000E+4	4.49997546E+1	0.00000000E+0	0.00000000E+0	1.39616804E-5	1.00214076E-5	3.57807113E-5	2.91750347E-5	8.89388339E-5	4.75608738E-4
3.75750000E+4	4.60002152E+1	0.00000000E+0	0.00000000E+0	1.40713053E-5	1.00812000E-5	3.59613402E-5	2.91892385E-5	8.93030839E-5	4.77556599E-4
4.25120000E+4	4.69999866E+1	0.00000000E+0	0.00000000E+0	1.40485125E-5	9.98335898E-6	3.59130247E-5	2.91543727E-5	8.90992688E-5	4.76466678E-4
4.74360000E+4	4.80000110E+1	0.00000000E+0	0.00000000E+0	1.40977191E-5	1.00014192E-5	3.58451588E-5	2.91876947E-5	8.91319918E-5	4.76641667E-4
5.22610000E+4	4.89996657E+1	0.00000000E+0	0.00000000E+0	1.39974819E-5	9.98591304E-6	3.58572705E-5	2.91405444E-5	8.89812099E-5	4.75835347E-4
5.71220000E+4	5.00002798E+1	0.00000000E+0	0.00000000E+0	1.40391665E-5	1.01117087E-5	3.60295100E-5	2.90145164E-5	8.91949015E-5	4.76978083E-4
6.19770000E+4	5.09999851E+1	0.00000000E+0	0.00000000E+0	1.39887260E-5	1.00113136E-5	3.57667370E-5	2.91301285E-5	8.88969051E-5	4.75384519E-4
6.67910000E+4	5.19999552E+1	0.00000000E+0	0.00000000E+0	1.39862316E-5	1.00546581E-5	3.58028633E-5	2.91198616E-5	8.89636146E-5	4.75741254E-4
7.15750000E+4	5.30000391E+1	0.00000000E+0	0.00000000E+0	1.41069846E-5	1.00640547E-5	3.59707547E-5	2.90563469E-5	8.91981410E-5	4.76995406E-4
7.62700000E+4	5.39999559E+1	0.00000000E+0	0.00000000E+0	1.39780389E-5	9.99738395E-6	3.58671708E-5	2.92031859E-5	8.90457796E-5	4.76180640E-4
8.09840000E+4	5.49999130E+1	0.00000000E+0	0.00000000E+0	1.39574395E-5	1.00391549E-5	3.60056056E-5	2.91858976E-5	8.91880976E-5	4.76941698E-4
8.56960000E+4	5.60000054E+1	0.00000000E+0	0.00000000E+0	1.39915811E-5	1.00481790E-5	3.58185125E-5	2.91283523E-5	8.89866250E-5	4.75864305E-4
9.03800000E+4	5.69999843E+1	0.00000000E+0	0.00000000E+0	1.40479403E-5	9.98752832E-6	3.56209708E-5	2.92447840E-5	8.89012234E-5	4.75407612E-4
9.50590000E+4	5.79999762E+1	0.00000000E+0	0.00000000E+0	1.38690637E-5	1.00689393E-5	3.58413292E-5	2.92499130E-5	8.90292453E-5	4.76092221E-4
9.96280000E+4	5.89997853E+1	0.00000000E+0	0.00000000E+0	1.41169863E-5	9.99626338E-6	3.56105579E-5	2.89087360E-5	8.86325435E-5	4.73970821E-4
1.04220000E+5	6.00001720E+1	0.00000000E+0	0.00000000E+0	1.39285670E-5	1.00008649E-5	3.58211977E-5	2.91184549E-5	8.88690846E-5	4.75235746E-4
1.08752000E+5	6.10000729E+1	0.00000000E+0	0.00000000E+0	1.39946209E-5	1.00830180E-5	3.59195275E-5	2.90742104E-5	8.90713768E-5	4.76317523E-4
1.13302000E+5	6.19999118E+1	0.00000000E+0	0.00000000E+0	1.40910523E-5	1.01129753E-5	3.59105391E-5	2.92012935E-5	8.93158602E-5	4.77624921E-4
1.17829000E+5	6.29998944E+1	0.00000000E+0	0.00000000E+0	1.40813844E-5	1.00778443E-5	3.57257021E-5	2.91606848E-5	8.90456157E-5	4.76179763E-4
1.22366000E+5	6.40000540E+1	0.00000000E+0	0.00000000E+0	1.40440242E-5	1.00221705E-5	3.56061769E-5	2.92459404E-5	8.89183121E-5	4.75498995E-4
1.26823000E+5	6.49996302E+1	0.00000000E+0	0.00000000E+0	1.41090857E-5	1.00184184E-5	3.58762456E-5	2.90586566E-5	8.90624063E-5	4.76269552E-4
1.31212000E+5	6.60003004E+1	0.00000000E+0	0.00000000E+0	1.41264753E-5	1.00384486E-5	3.58840985E-5	2.92602008E-5	8.93092232E-5	4.77589429E-4
1.35635000E+5	6.69999268E+1	0.00000000E+0	0.00000000E+0	1.40392737E-5	9.97242450E-6	3.57462270E-5	2.91198050E-5	8.88777302E-5	4.75281980E-4
1.40041000E+5	6.80000684E+1	0.00000000E+0	0.00000000E+0	1.40189903E-5	1.00075644E-5	3.59193904E-5	2.89553498E-5	8.89012949E-5	4.75407994E-4
1.44471000E+5	6.89998897E+1	0.00000000E+0	0.00000000E+0	1.39940070E-5	1.00321007E-5	3.57570929E-5	2.91877364E-5	8.89709370E-5	4.75780412E-4
1.48909000E+5	6.99998166E+1	0.00000000E+0	0.00000000E+0	1.42054605E-5	9.95155095E-6	3.56423838E-5	2.92203402E-5	8.90197353E-5	4.76041365E-4
1.53305000E+5	7.10002325E+1	0.00000000E+0	0.00000000E+0	1.40290009E-5	1.00451958E-5	3.59242214E-5	2.90898298E-5	8.90882479E-5	4.76407743E-4
1.57606000E+5	7.19997153E+1	0.00000000E+0	0.00000000E+0	1.39691697E-5	9.99097347E-6	3.58052743E-5	2.91500484E-5	8.89154659E-5	4.75483775E-4
1.70488000E+5	7.00003959E+1	0.00000000E+0	0.00000000E+0	1.40229719E-5	9.98720646E-6	3.58175380E-5	2.91207110E-5	8.89484273E-5	4.75660039E-4
1.75683000E+5	7.09991398E+1	0.00000000E+0	0.00000000E+0	1.39594870E-5	9.97419774E-6	3.57013626E-5	2.89575194E-5	8.85925667E-5	4.73757041E-4
1.80054000E+5	7.20002261E+1	0.00000000E+0	0.00000000E+0	1.40176015E-5	1.00164753E-5	3.59242572E-5	2.90386831E-5	8.89970170E-5	4.75919877E-4
1.84351000E+5	7.29994814E+1	0.00000000E+0	0.00000000E+0	1.40207963E-5	1.00519073E-5	3.58389957E-5	2.90386562E-5	8.89503555E-5	4.75670350E-4
1.88746000E+5	7.40004165E+1	0.00000000E+0	0.00000000E+0	1.40044169E-5	9.99207616E-6	3.57346518E-5	2.91355406E-5	8.88666855E-5	4.75222917E-4
1.93008000E+5	7.49997972E+1	0.00000000E+0	0.00000000E+0	1.40614109E-5	1.00118649E-5	3.57649250E-5	2.89706444E-5	8.88088451E-5	4.74913610E-4
1.97279000E+5	7.60003534E+1	0.00000000E+0	0.00000000E+0	1.40297012E-5	9.96836245E-6	3.59352482E-5	2.90615236E-5	8.89948355E-5	4.75908211E-4
2.01569000E+5	7.69999167E+1	0.00000000E+0	0.00000000E+0	1.40117245E-5	1.00636464E-5	3.59641356E-5	2.90472930E-5	8.90867995E-5	4.76399997E-4
2.05824000E+5	7.80000988E+1	0.00000000E+0	0.00000000E+0	1.39822351E-5	1.00451899E-5	3.59518124E-5	2.92339807E-5	8.92132180E-5	4.77076032E-4
2.10113000E+5	7.90000333E+1	0.00000000E+0	0.00000000E+0	1.40992450E-5	9.99814093E-6	3.59110398E-5	2.91756873E-5	8.91841130E-5	4.76920391E-4
2.14405000E+5	7.99999504E+1	0.00000000E+0	0.00000000E+0	1.39610963E-5	1.00635421E-5	3.60029413E-5	2.93011700E-5	8.93287497E-5	4.77693849E-4
2.18681000E+5	8.10001560E+1	0.00000000E+0	0.00000000E+0	1.38881670E-5	1.00022000E-5	3.58192546E-5	2.91665887E-5	8.88762103E-5	4.75273852E-4
2.22975000E+5	8.20001080E+1	0.00000000E+0	0.00000000E+0	1.40624808E-5	1.00159538E-5	3.57481850E-5	2.89735769E-5	8.88001965E-5	4.74867361E-4
2.27090000E+5	8.29993932E+1	0.00000000E+0	0.00000000E+0	1.39602290E-5	1.00633037E-5	3.57539965E-5	2.91500544E-5	8.89275836E-5	4.75548575E-4
2.31217000E+5	8.40001079E+1	0.00000000E+0	0.00000000E+0	1.40045362E-5	1.00274277E-5	3.58726932E-5	2.89642637E-5	8.88689207E-5	4.75234870E-4
2.35358000E+5	8.50004678E+1	0.00000000E+0	0.00000000E+0	1.41097443E-5	1.00729537E-5	3.60263391E-5	2.92175119E-5	8.94265490E-5	4.78216840E-4
2.39573000E+5	8.60003041E+1	0.00000000E+0	0.00000000E+0	1.40911179E-5	1.00618970E-5	3.59472943E-5	2.92254840E-5	8.93257933E-5	4.77678039E-4
2.43718000E+5	8.69997731E+1	0.00000000E+0	0.00000000E+0	1.40354412E-5	1.00630087E-5	3.57461823E-5	2.92275821E-5	8.90722143E-5	4.76322001E-4
2.48634000E+5	8.80000031E+1	0.00000000E+0	0.00000000E+0	1.40332805E-5	1.00517523E-5	3.58151419E-5	2.88546358E-5	8.87548105E-5	4.74624655E-4
2.52780000E+5	8.90002366E+1	0.00000000E+0	0.00000000E+0	1.39329867E-5	1.00016874E-5	3.58470781E-5	2.91252737E-5	8.89070259E-5	4.75438641E-4
2.56948000E+5	8.99998405E+1	0.00000000E+0	0.00000000E+0	1.41097175E-5	1.00114864E-5	3.57511921E-5	2.91790967E-5	8.90514927E-5	4.76211191E-4
2.61104000E+5	9.10001188E+1	0.00000000E+0	0.00000000E+0	1.40575247E-5	9.96675312E-6	3.58262641E-5	2.91176205E-5	8.89681624E-5	4.75765574E-4
2.65215000E+5	9.20003597E+1	0.00000000E+0	0.00000000E+0	1.40862541E-5	9.98447060E-6	3.59229637E-5	2.90578579E-5	8.90515463E-5	4.76211478E-4
2.69428000E+5	9.30001604E+1	0.00000000E+0	0.00000000E+0	1.41083764E-5	1.00673241E-5	3.57981337E-5	2.92650615E-5	8.92388957E-5	4.77213346E-4
2.73567000E+5	9.40001606E+1	0.00000000E+0	0.00000000E+0	1.40916752E-5	1.00699735E-5	3.59478218E-5	2.92566573E-5	8.93661278E-5	4.77893731E-4
2.77712000E+5	9.50001981E+1	0.00000000E+0	0.00000000E+0	1.41514825E-5	1.00762320E-5	3.58826889E-5	2.92490130E-5	8.93594163E-5	4.77857841E-4
2.81707000E+5	9.59986739E+1	0.00000000E+0	0.00000000E+0	1.40167730E-5	1.00297284E-5	3.58328385E-5	2.92045717E-5	8.90839117E-5	4.76384554E-4
2.85721000E+5	9.70013001E+1	0.00000000E+0	0.00000000E+0	1.40417801E-5	1.00377005E-5	3.59727128E-5	2.90526067E-5	8.91048001E-5	4.76496257E-4
2.89720000E+5	9.79999137E+1	0.00000000E+0	0.00000000E+0	1.40303509E-5	1.00647074E-5	3.58604504E-5	2.93049430E-5	8.92604517E-5	4.77328619E-4
2.93733000E+5	9.90003715E+1	0.00000000E+0	0.00000000E+0	1.40609818E-5	1.00795639E-5	3.60679908E-5	2.91049634E-5	8.93134998E-5	4.77612299E-4
2.97734000E+5	9.99997864E+1	0.00000000E+0	0.00000000E+0	1.40890198E-5	1.00228381E-5	3.59966410E-5	2.91247492E-5	8.92332481E-5	4.77183145E-4
3.01799000E+5	1.01000284E+2	0.00000000E+0	0.00000000E+0	1.39693992E-5	1.00055617E-5	3.58952893E-5	2.91083251E-5	8.89785753E-5	4.75821259E-4
3.05850000E+5	1.02000498E+2	0.00000000E+0	0.00000000E+0	1.40414165E-5	1.00497049E-5	3.57916845E-5	2.90701335E-5	8.89529394E-5	4.75684168E-4
3.16728000E+5	9.80006888E+1	0.00000000E+0	0.00000000E+0	1.40186923E-5	9.98510539E-6	3.58485801E-5	2.91909878E-5	8.90433656E-5	4.76167730E-4
3.21535000E+5	9.89986334E+1	0.00000000E+0	0.00000000E+0	1.41007470E-5	1.00261968E-5	3.58719451E-5	2.91879450E-5	8.91868340E-5	4.76934941E-4
3.25575000E+5	9.99997864E+1	0.00000000E+0	0.00000000E+0	1.39750318E-5	1.00774390E-5	3.58719779E-5	2.92135959E-5	8.91380446E-5	4.76674035E-4
3.29611000E+5	1.01000083E+2	0.00000000E+0	0.00000000E+0	1.40501367E-5	1.00540471E-5	3.60233678E-5	2.91641121E-5	8.92916637E-5	4.77495528E-4
3.33646000E+5	1.02000703E+2	0.00000000E+0	0.00000000E+0	1.40416520E-5	1.00284857E-5	3.56543196E-5	2.90022050E-5	8.87266622E-5	4.74474130E-4
3.37710000E+5	1.03000020E+2	0.00000000E+0	0.00000000E+0	1.39314430E-5	9.94892239E-6	3.58675374E-5	2.89814060E-5	8.87293087E-5	4.74488282E-4
3.41780000E+5	1.03999714E+2	0.00000000E+0	0.00000000E+0	1.40214371E-5	9.98661041E-6	3.59410418E-5	2.91644876E-5	8.91135769E-5	4.76543192E-4
3.45814000E+5	1.05000315E+2	0.00000000E+0	0.00000000E+0	1.40503483E-5	1.00431514E-5	3.59863384E-5	2.90677612E-5	8.91475992E-5	4.76725130E-4
3.49841000E+5	1.06000427E+2	0.00000000E+0	0.00000000E+0	1.39882700E-5	1.00424302E-5	3.57664896E-5	2.90257071E-5	8.88228969E-5	4.74988754E-4
3.53902000E+5	1.06999691E+2	0.00000000E+0	0.00000000E+0	1.40317665E-5	1.00509626E-5	3.59047128E-5	2.90001963E-5	8.89876382E-5	4.75869723E-4
3.57931000E+5	1.08000044E+2	0.00000000E+0	0.00000000E+0	1.41296046E-5	1.00055617E-5	3.57522173E-5	2.91696315E-5	8.90570151E-5	4.76240722E-4
3.61868000E+5	1.08999609E+2	0.00000000E+0	0.00000000E+0	1.40141265E-5	1.00277317E-5	3.58102811E-5	2.91477477E-5	8.89998870E-5	4.75935225E-4
3.65787000E+5	1.10000440E+2	0.00000000E+0	0.00000000E+0	1.40389668E-5	1.00701135E-5	3.57346339E-5	2.89099519E-5	8.87536661E-5	4.74618535E-4
3.69673000E+5	1.10999666E+2	0.00000000E+0	0.00000000E+0	1.40312390E-5	9.97741639E-6	3.58495844E-5	2.89753442E-5	8.88335841E-5	4.75045904E-4
3.73584000E+5	1.11999906E+2	0.00000000E+0	0.00000000E+0	1.40843349E-5	1.00673002E-5	3.57252015E-5	2.92722707E-5	8.91491072E-5	4.76733194E-4
3.77559000E+5	1.13000721E+2	0.00000000E+0	0.00000000E+0	1.38779001E-5	1.00754333E-5	3.59168811E-5	2.90229862E-5	8.88932006E-5	4.75364709E-4
3.81448000E+5	1.13999860E+2	0.00000000E+0	0.00000000E+0	1.41403424E-5	1.00665045E-5	3.58667506E-5	2.91104024E-5	8.91839998E-5	4.76919785E-4
3.85401000E+5	1.15000666E+2	0.00000000E+0	0.00000000E+0	1.39946865E-5	1.00654405E-5	3.59381689E-5	2.90080105E-5	8.90063064E-5	4.75969553E-4
3.89318000E+5	1.16000105E+2	0.00000000E+0	0.00000000E+0	1.40734809E-5	1.00195479E-5	3.57806099E-5	2.90989106E-5	8.89725493E-5	4.75789034E-4
3.93229000E+5	1.17000072E+2	0.00000000E+0	0.00000000E+0	1.40017437E-5	1.00241107E-5	3.59267695E-5	2.92166178E-5	8.91692417E-5	4.76840865E-4
3.97214000E+5	1.18000415E+2	0.00000000E+0	0.00000000E+0	1.40285866E-5	9.99443352E-6	3.58605904E-5	2.91246777E-5	8.90082883E-5	4.75980151E-4
4.01080000E+5	1.18999870E+2	0.00000000E+0	0.00000000E+0	1.40090661E-5	9.99508321E-6	3.58117891E-5	2.91207348E-5	8.89366733E-5	4.75597183E-4
4.04994000E+5	1.20000508E+2	0.00000000E+0	0.00000000E+0	1.40892850E-5	1.00774300E-5	3.59332098E-5	2.90188586E-5	8.91187834E-5	4.76571034E-4
4.08903000E+5	1.20999938E+2	0.00000000E+0	0.00000000E+0	1.40951382E-5	1.00022417E-5	3.57483787E-5	2.91595226E-5	8.90052812E-5	4.75964071E-4
4.12775000E+5	1.21999452E+2	0.00000000E+0	0.00000000E+0	1.40506642E-5	1.00295019E-5	3.59702123E-5	2.90403639E-5	8.90907424E-5	4.76421082E-4
4.16698000E+5	1.23000674E+2	0.00000000E+0	0.00000000E+0	1.39841871E-5	1.00332958E-5	3.57548071E-5	2.91088437E-5	8.88811337E-5	4.75300180E-4
4.20673000E+5	1.23999392E+2	0.00000000E+0	0.00000000E+0	1.40548991E-5	1.00969267E-5	3.59316481E-5	2.92563414E-5	8.93398153E-5	4.77753023E-4
4.24661000E+5	1.25000297E+2	0.00000000E+0	0.00000000E+0	1.40862243E-5	1.01046068E-5	3.59112157E-5	2.91828846E-5	8.92849313E-5	4.77459526E-4
4.28617000E+5	1.25999969E+2	0.00000000E+0	0.00000000E+0	1.42207520E-5	1.00616020E-5	3.61539794E-5	2.93551361E-5	8.97914695E-5	4.80168286E-4
4.32566000E+5	1.26999231E+2	0.00000000E+0	0.00000000E+0	1.40547918E-5	1.00971562E-5	3.59333916E-5	2.90592228E-5	8.91445624E-5	4.76708890E-4
4.36378000E+5	1.27998325E+2	0.00000000E+0	0.00000000E+0	1.40527384E-5	1.00680512E-5	3.60071225E-5	2.92768454E-5	8.94047575E-5	4.78100308E-4
4.40144000E+5	1.29000473E+2	0.00000000E+0	0.00000000E+0	1.39608817E-5	1.01229531E-5	3.60481782E-5	2.91704809E-5	8.93024938E-5	4.77553443E-4
4.43908000E+5	1.30000118E+2	0.00000000E+0	0.00000000E+0	1.39493214E-5	1.00810719E-5	3.59403862E-5	2.87592624E-5	8.87300418E-5	4.74492202E-4
4.47653000E+5	1.31000835E+2	0.00000000E+0	0.00000000E+0	1.41526179E-5	1.00532991E-5	3.57204569E-5	2.91084682E-5	8.90348421E-5	4.76122150E-4
4.51410000E+5	1.32001968E+2	0.00000000E+0	0.00000000E+0	1.40446382E-5	1.00934547E-5	3.59730525E-5	2.90451353E-5	8.91562807E-5	4.76771554E-4
4.55923000E+5	1.32998649E+2	0.00000000E+0	0.00000000E+0	1.40347617E-5	1.00393546E-5	3.59116299E-5	2.91004961E-5	8.90862422E-5	4.76397017E-4
4.59664000E+5	1.33999542E+2	0.00000000E+0	0.00000000E+0	1.38996558E-5	1.00291950E-5	3.58261032E-5	2.91368907E-5	8.88918446E-5	4.75357458E-4
4.63486000E+5	1.35000856E+2	0.00000000E+0	0.00000000E+0	1.40991675E-5	1.00333583E-5	3.58857466E-5	2.90502076E-5	8.90684800E-5	4.76302032E-4
4.67244000E+5	1.36000861E+2	0.00000000E+0	0.00000000E+0	1.41199993E-5	1.00759578E-5	3.60212905E-5	2.92385196E-5	8.94557672E-5	4.78373087E-4
4.71049000E+5	1.36998775E+2	0.00000000E+0	0.00000000E+0	1.41150134E-5	1.01185960E-5	3.58111305E-5	2.89963608E-5	8.90411006E-5	4.76155618E-4
