G:\BEAR_storage\User_Experiments\20220317_arneodo\file(1)_Region 2__0038.txt
Ring Energy (GeV): 2
Lifetime (hours): 0
Scan beginning: 3/18/2022	6:06:32 PM
Ring current (mA): 0
Source position: x (mm): 1.535 x' (mrad): -0.647 y (mm): 0.31 y' (mrad): 0.391
Scan end: 3/18/2022	6:10:47 PM
Ring current (mA): 0
Source position: x (mm): 1.535 x' (mrad): -0.647 y (mm): 0.31 y' (mrad): 0.391

SCAN TYPE: PHOTON ENERGY VS VAR_1 VS VAR_2

FILE INFO: FILE INFO:

SCAN PARAMETERS
waiting time (ms): 0
Number of scans: 1
Current scan number: 1
DARK OFF 
PREDARK OFF 

SCAN PARAMETERS
Regions configuration: 
number of regions: 6
Mirror grating scan: on
Timed acquisition: off
Region 1:
Initial energy (eV): 40.000000
Final energy (eV): 72.000000
Delta energy (eV): 1.000000
Deviation angle choice: Higher order rejection
Deviation angle (°): NaN
Al filter
G1200 channel
range keithley B 20 nA
range keithley C 200 nA
range keithley A 20 nA
Var_1: PsiC 0.000000
Var_2: PhiM0.000000
Bias CEM (V): 0.000000
Bias Keithley B (V): -30.000000
Name region: 
Region 2:
Initial energy (eV): 70.000000
Final energy (eV): 102.000000
Delta energy (eV): 1.000000
Deviation angle choice: Higher order rejection
Deviation angle (°): NaN
Si filter
G1200 channel
range keithley B 20 nA
range keithley C 200 nA
range keithley A 20 nA
Var_1: PsiC 0.000000
Var_2: PhiM0.000000
Bias CEM (V): 0.000000
Bias Keithley B (V): -30.000000
Name region: 
Region 3:
Initial energy (eV): 98.000000
Final energy (eV): 260.000000
Delta energy (eV): 1.000000
Deviation angle choice: Higher order rejection
Deviation angle (°): NaN
Full Beam
G1200 channel
range keithley B 20 nA
range keithley C 200 nA
range keithley A 200 nA
Var_1: PsiC 0.000000
Var_2: PhiM0.000000
Bias CEM (V): 0.000000
Bias Keithley B (V): -30.000000
Name region: 
Region 4:
Initial energy (eV): 255.000000
Final energy (eV): 320.000000
Delta energy (eV): 1.000000
Deviation angle choice: Higher order rejection
Deviation angle (°): NaN
filter Ag 0.6 um
G1200 channel
range keithley B 200 pA
range keithley C 200 nA
range keithley A 200 pA
Var_1: PsiC 0.000000
Var_2: PhiM0.000000
Bias CEM (V): 0.000000
Bias Keithley B (V): -30.000000
Name region: 
Region 5:
Initial energy (eV): 315.000000
Final energy (eV): 1200.000000
Delta energy (eV): 5.000000
Deviation angle choice: Higher order rejection
Deviation angle (°): NaN
Full Beam
G1200 channel
range keithley B 20 nA
range keithley C 200 nA
range keithley A 20 nA
Var_1: PsiC 0.000000
Var_2: PhiM0.000000
Bias CEM (V): 0.000000
Bias Keithley B (V): -30.000000
Name region: 
Region 6:
Initial energy (eV): 1190.000000
Final energy (eV): 1500.000000
Delta energy (eV): 5.000000
Deviation angle choice: Higher order rejection
Deviation angle (°): NaN
filter Ag 0.6 um
G1200 channel
range keithley B 200 pA
range keithley C 200 nA
range keithley A 200 pA
Var_1: PsiC 0.000000
Var_2: PhiM0.000000
Bias CEM (V): 0.000000
Bias Keithley B (V): -30.000000
Name region: 

BEAR MONOCHROMATOR CONFIGURATION: 
Current Grating Position:     -181699.20
Current Mirror Position: 2556.9
Current Grating: G1200
P2 phiz position:  0.0000
Mono axis position: 25.0000
Current Photon Energy (eV): 70.000
Current Deviation Angle: 155.000
Vertical Exit Slits (um): 450.000
Exit slit y axis position: 2.2375
Horizontal Exit Slits (um):  889.156
Exit slit z axis position: 1.9229
Mitutoyo position (mm): 

Dose on sample (mJ/cm^2): NaN

ENERGY CALIBRATION:
offset grating G1200: yes
Delta 0 order G1200:  -800.0
offset grating G1800: not
Delta 0 order G1800:  0.0
offset grating GNIM: not
Delta 0 order GNIM:  0.0
ZERO ORDER POSITIONS:
Grating G1200: Mirror position:  4938.0
Grating position: -105355.0
Grating G1800: 
Mirror position:  4938.0
Grating position: -106345.0
Grating GNIM: 
Mirror position:  10000.0
Grating position: 227300.0

Initial filter: Si filter

EXPERIMENTAL CHAMBER CONFIGURATION: 
PsiC (deg):   -0.000186
Phi Analyzer (degrees): 89.992308
Theta Manipulator (degrees): -44.000040
Theta Analyzer (degrees): -135.001468
PhiM (degrees): -0.002051
XM (mm): 0.000750
YM (mm): 19.932987
ZM (mm): (Warning: for kinetic energy scans, 
this parameter is given in the scan settings) 
-6.601438
TiltM (°): 0.000138

ELECTRON ANALYZER CONFIGURATION: 
Current Kinetik energy (eV): 35.0
Mode: DE = COST
Pass Energy (eV):  50.000
CEM: ON
Bias Front-Back CEM (V): 3499.561
Bias Back-Collector CEM (V): 100.874
Bias Retard-Front CEM: 100.087COIL VALUES
Ix (amps):2.820
Iy (amps): 6.789
Iz (amps): 37.337

POLARIZATION SELECTOR CONFIGURATION:
Psi1 (rad): -0.001665535
Psi2 (rad): 0.001417093
Z min position (mm): 46.599650
DZ position (mm): 18.599100
Zmin 0 (mm): 66.500000
DZ0 (mm): 53.000000

BEAM SELECTOR CONFIGURATION:
Zmin position (mm): NaN
DZ position (mm): NaN
Y+ position (mm): NaN
Y- position (mm): NaN

CHANNEL ELECTRON MULTIPLIER CONFIGURATION:
CEM configured: OFF
Bias CEM: 0.000000

FLUORESCENCE DETECTOR CONFIGURATION:
Not configured

LUMINESCENCE MONOCHROMATOR CONFIGURATION:
Optical fiber position (mm): 0.000000
Optical fiber Switch inside: OFF
Optical fiber Switch outside: ON
Monochromator wavelength (A): 0.000000
Limit Switches: ON

I0 MONITOR PARAMETERS:
I0 detector position(mm): -0.000000E+0
Lower switch: OFF
Upper switch: OFF
Valve status:open

PRESSURE PARAMETERS:
Monitor chamber pressure (mbar): 9.543e-10
Experimental chamber pressure -ION GAUGE-(mbar): 0.000000E+0

XMCD PARAMETERS:
Xmcd OFF
Xmcd Direction -
Xmcd current (A): 0.000000

Gated scan off

Instrument 1: AMMETER KEITHLEY 6517A B
Measure type: Current
range type: set range value
range value (ampere):  200 pA
Integration time:  set NPLC value
NPLC value: 10.000
Digital filter count: 2
SAMPLE BIAS (V): -30.000
Vsource: ON
Output Voltage value: 30.000
Vsource range: 1000 V

Range Keithley B changed to 20 nA

Range Keithley B changed to 200 pA

Range Keithley B changed to 20 nA

Range Keithley B changed to 200 pA

Range Keithley B changed to 20 nA

Range Keithley B changed to 200 pA

Range Keithley B changed to 20 nA

Range Keithley B changed to 200 nA

Range Keithley B changed to 200 pA

Range Keithley B changed to 20 nA

Range Keithley B changed to 200 pA

Range Keithley B changed to 20 nA

Range Keithley B changed to 200 pA

Range Keithley B changed to 20 nA

Range Keithley B changed to 200 pA

Range Keithley B changed to 20 nA

Range Keithley B changed to 200 pA

Range Keithley B changed to 20 nA

Instrument 2: AMMETER KEITHLEY 6517A A
Measure type: Current
range type: set range value
range value (ampere):  200 nA
Integration time:  set NPLC value
NPLC value: 10.000
Digital filter count: 2
Vsource: OFF
Output Voltage value: -0.000
Vsource range: 100 V
Trigger source: bus

Range Keithley A changed to 20 nA

Range Keithley A changed to 200 nA

Range Keithley A changed to 200 pA

Range Keithley A changed to 20 nA

Range Keithley A changed to 200 pA

Range Keithley A changed to 20 nA

Range Keithley A changed to 200 nA

Range Keithley A changed to 200 pA

Range Keithley A changed to 20 nA

Range Keithley A changed to 200 pA

Range Keithley A changed to 20 nA

Range Keithley A changed to 200 nA

Range Keithley A changed to 200 pA

Range Keithley A changed to 20 nA

Range Keithley A changed to 200 pA

Range Keithley A changed to 20 nA

Range Keithley A changed to 200 pA

Range Keithley A changed to 20 nA

Range Keithley A changed to 200 pA

Range Keithley A changed to 20 nA

Range Keithley A changed to 200 pA

Range Keithley A changed to 20 nA

Range Keithley A changed to 200 nA

Range Keithley A changed to 200 pA

Range Keithley A changed to 20 nA

Range Keithley A changed to 200 pA

Range Keithley A changed to 20 nA

Range Keithley A changed to 200 nA

Range Keithley A changed to 200 pA

Range Keithley A changed to 20 nA

Range Keithley A changed to 200 nA

Range Keithley A changed to 200 pA

Range Keithley A changed to 20 nA

Range Keithley A changed to 200 pA

Range Keithley A changed to 20 nA

Range Keithley A changed to 200 pA

Range Keithley A changed to 20 nA

Range Keithley A changed to 200 nA

Range Keithley A changed to 200 pA

Range Keithley A changed to 20 nA

Range Keithley A changed to 200 pA

Range Keithley A changed to 20 nA

Range Keithley A changed to 200 nA

Instrument 3: AMMETER KEITHLEY 6517A C 
Measure type: Current
range type: set range value
range value (ampere):  20 uA
Integration time:  set NPLC value
NPLC value: 10.000
Digital filter count: 2
Vsource: OFF
Output Voltage value: -0.000
Vsource range: 100 V
Trigger source: bus


Range Keithley C changed to 200 nA


________________________________________________________________________________

RelativeTime (msec)	Photon Energy	Var_1	Var_2	INSTR_1_Sample with Bias _(ampere ) 	INSTR_2_Monitor IM_(ampere)  	INSTR_3_Diode A3_(ampere)	I_BPM_sum (Amps)	
________________________________________________________________________________

1.39586000E+5	7.00008787E+1	0.00000000E+0	0.00000000E+0	-2.30000000E-13	6.10000000E-13	-1.61000000E-11	-1.86557494E-6
1.43792000E+5	7.09991398E+1	0.00000000E+0	0.00000000E+0	-3.50000000E-13	6.10000000E-13	-1.41000000E-11	-1.88180529E-6
1.47274000E+5	7.20001239E+1	0.00000000E+0	0.00000000E+0	-1.90000000E-13	6.10000000E-13	-1.57000000E-11	-1.89554714E-6
1.50699000E+5	7.29999014E+1	0.00000000E+0	0.00000000E+0	-5.30000000E-13	6.20000000E-13	-1.55000000E-11	-1.87622927E-6
1.54062000E+5	7.39997520E+1	0.00000000E+0	0.00000000E+0	-2.70000000E-13	6.30000000E-13	-1.66000000E-11	-1.89236425E-6
1.57383000E+5	7.49999081E+1	0.00000000E+0	0.00000000E+0	-2.00000000E-13	6.30000000E-13	-1.34000000E-11	-1.88333713E-6
1.60694000E+5	7.60002395E+1	0.00000000E+0	0.00000000E+0	-2.90000000E-13	5.90000000E-13	-1.35000000E-11	-1.86958931E-6
1.64030000E+5	7.69999167E+1	0.00000000E+0	0.00000000E+0	-3.40000000E-13	6.20000000E-13	-1.45000000E-11	-1.87931977E-6
1.67336000E+5	7.79998590E+1	0.00000000E+0	0.00000000E+0	-3.60000000E-13	6.00000000E-13	-1.50000000E-11	-1.90652036E-6
1.70644000E+5	7.90000508E+1	0.00000000E+0	0.00000000E+0	-7.10000000E-13	5.90000000E-13	-1.57000000E-11	-1.89548455E-6
1.73962000E+5	7.99999504E+1	0.00000000E+0	0.00000000E+0	-1.90000000E-13	6.60000000E-13	-1.22000000E-11	-1.89036749E-6
1.77314000E+5	8.09998974E+1	0.00000000E+0	0.00000000E+0	-4.00000000E-13	6.30000000E-13	-1.69000000E-11	-1.88570343E-6
1.80686000E+5	8.19999755E+1	0.00000000E+0	0.00000000E+0	-2.90000000E-13	6.00000000E-13	-1.42000000E-11	-1.90875851E-6
1.83987000E+5	8.29996825E+1	0.00000000E+0	0.00000000E+0	2.00000000E-14	6.20000000E-13	-1.58000000E-11	-1.89281129E-6
1.87167000E+5	8.39994127E+1	0.00000000E+0	0.00000000E+0	-1.00000000E-13	6.00000000E-13	-1.40000000E-11	-1.87557958E-6
1.90390000E+5	8.50004678E+1	0.00000000E+0	0.00000000E+0	-2.50000000E-13	6.60000000E-13	-1.67000000E-11	-1.89160429E-6
1.93626000E+5	8.60000127E+1	0.00000000E+0	0.00000000E+0	-8.00000000E-14	6.10000000E-13	-1.64000000E-11	-1.87750183E-6
1.96804000E+5	8.69996239E+1	0.00000000E+0	0.00000000E+0	-6.00000000E-14	6.60000000E-13	-1.62000000E-11	-1.88009463E-6
2.00714000E+5	8.80001557E+1	0.00000000E+0	0.00000000E+0	-1.70000000E-13	6.20000000E-13	-1.35000000E-11	-1.88242518E-6
2.03925000E+5	8.90003927E+1	0.00000000E+0	0.00000000E+0	-4.20000000E-13	6.40000000E-13	-1.52000000E-11	-1.90160595E-6
2.07112000E+5	8.99996809E+1	0.00000000E+0	0.00000000E+0	-3.80000000E-13	5.90000000E-13	-1.71000000E-11	-1.87411927E-6
2.10294000E+5	9.09997744E+1	0.00000000E+0	0.00000000E+0	-1.30000000E-13	5.90000000E-13	-1.32000000E-11	-1.90564417E-6
2.13371000E+5	9.20000441E+1	0.00000000E+0	0.00000000E+0	-3.00000000E-13	6.10000000E-13	-1.64000000E-11	-1.86694883E-6
2.16573000E+5	9.29999900E+1	0.00000000E+0	0.00000000E+0	-2.30000000E-13	6.30000000E-13	-1.54000000E-11	-1.89015888E-6
2.19758000E+5	9.39999865E+1	0.00000000E+0	0.00000000E+0	-5.70000000E-13	6.40000000E-13	-1.66000000E-11	-1.86872803E-6
2.22949000E+5	9.50001981E+1	0.00000000E+0	0.00000000E+0	7.00000000E-14	6.00000000E-13	-1.54000000E-11	-1.86171554E-6
2.26020000E+5	9.59988555E+1	0.00000000E+0	0.00000000E+0	-4.50000000E-13	5.90000000E-13	-1.05000000E-11	-1.87943600E-6
2.29130000E+5	9.70011147E+1	0.00000000E+0	0.00000000E+0	-3.40000000E-13	6.00000000E-13	-1.24000000E-11	-1.89566039E-6
2.32244000E+5	9.79997244E+1	0.00000000E+0	0.00000000E+0	-3.90000000E-13	6.10000000E-13	-1.53000000E-11	-1.90934562E-6
2.35311000E+5	9.89994059E+1	0.00000000E+0	0.00000000E+0	-4.10000000E-13	6.20000000E-13	-2.01000000E-11	-1.89057313E-6
2.38373000E+5	9.99999835E+1	0.00000000E+0	0.00000000E+0	-2.50000000E-13	6.00000000E-13	-1.19000000E-11	-1.87409841E-6
2.41434000E+5	1.01000083E+2	0.00000000E+0	0.00000000E+0	-2.30000000E-13	6.30000000E-13	-1.25000000E-11	-1.86330996E-6
2.44480000E+5	1.02000106E+2	0.00000000E+0	0.00000000E+0	-3.20000000E-13	6.20000000E-13	-1.62000000E-11	-1.87873565E-6
