G:\BEAR_storage\User_Experiments\20220317_arneodo\file(1)_Region 2__0084.txt
Ring Energy (GeV): 2
Lifetime (hours): 15.5645
Scan beginning: 3/22/2022	12:25:16 AM
Ring current (mA): 309.21
Source position: x (mm): 0.007 x' (mrad): -0 y (mm): -0.001 y' (mrad): 0.001
Scan end: 3/22/2022	12:35:06 AM
Ring current (mA): 308.72
Source position: x (mm): 0.006 x' (mrad): 0 y (mm): -0.001 y' (mrad): 0.001

SCAN TYPE: PHOTON ENERGY VS VAR_1 VS VAR_2

FILE INFO: FILE INFO:

SCAN PARAMETERS
waiting time (ms): 1000
Number of scans: 1
Current scan number: 1
DARK OFF 
PREDARK OFF 

SCAN PARAMETERS
Regions configuration: 
number of regions: 7
Mirror grating scan: on
Timed acquisition: off
Region 1:
Initial energy (eV): 3.000000
Final energy (eV): 4.500000
Delta energy (eV): 0.100000
Deviation angle choice: Degrees: 
Deviation angle (°): NaN
B270 window
GNIM channel
range keithley B 200 pA
range keithley C 200 pA
range keithley A 200 pA
Var_1: PsiC 0.000000
Var_2: PhiM0.000000
Bias CEM (V): 0.000000
Bias Keithley B (V): -30.000000
Name region: 
Region 2:
Initial energy (eV): 4.000000
Final energy (eV): 8.000000
Delta energy (eV): 0.100000
Deviation angle choice: Degrees: 
Deviation angle (°): NaN
SiO2 window
GNIM channel
range keithley B 200 pA
range keithley C 200 pA
range keithley A 200 pA
Var_1: PsiC 0.000000
Var_2: PhiM0.000000
Bias CEM (V): 0.000000
Bias Keithley B (V): -30.000000
Name region: 
Region 3:
Initial energy (eV): 7.000000
Final energy (eV): 12.000000
Delta energy (eV): 0.100000
Deviation angle choice: Degrees: 
Deviation angle (°): NaN
filter LiF window
GNIM channel
range keithley B 200 pA
range keithley C 200 pA
range keithley A 200 pA
Var_1: PsiC 0.000000
Var_2: PhiM0.000000
Bias CEM (V): 0.000000
Bias Keithley B (V): -30.000000
Name region: 
Region 4:
Initial energy (eV): 11.000000
Final energy (eV): 18.000000
Delta energy (eV): 0.100000
Deviation angle choice: Degrees: 
Deviation angle (°): NaN
In filter
GNIM channel
range keithley B 200 pA
range keithley C 200 pA
range keithley A 200 pA
Var_1: PsiC 0.000000
Var_2: PhiM0.000000
Bias CEM (V): 0.000000
Bias Keithley B (V): -30.000000
Name region: 
Region 5:
Initial energy (eV): 15.000000
Final energy (eV): 25.000000
Delta energy (eV): 0.100000
Deviation angle choice: Degrees: 
Deviation angle (°): NaN
Sn filter
GNIM channel
range keithley B 200 pA
range keithley C 200 pA
range keithley A 200 pA
Var_1: PsiC 0.000000
Var_2: PhiM0.000000
Bias CEM (V): 0.000000
Bias Keithley B (V): -30.000000
Name region: 
Region 6:
Initial energy (eV): 23.000000
Final energy (eV): 45.000000
Delta energy (eV): 0.100000
Deviation angle choice: Degrees: 
Deviation angle (°): NaN
Full Beam
GNIM channel
range keithley B 20 nA
range keithley C 200 pA
range keithley A 20 nA
Var_1: PsiC 0.000000
Var_2: PhiM0.000000
Bias CEM (V): 0.000000
Bias Keithley B (V): -30.000000
Name region: 
Region 7:
Initial energy (eV): 23.000000
Final energy (eV): 45.000000
Delta energy (eV): 0.100000
Deviation angle choice: Degrees: 
Deviation angle (°): NaN
Al filter
GNIM channel
range keithley B 20 nA
range keithley C 200 pA
range keithley A 20 nA
Var_1: PsiC 0.000000
Var_2: PhiM0.000000
Bias CEM (V): 0.000000
Bias Keithley B (V): -30.000000
Name region: 

BEAR MONOCHROMATOR CONFIGURATION: 
Current Grating Position:     200056.80
Current Mirror Position: 10000.0
Current Grating: GNIM
P2 phiz position:  -0.0195
Mono axis position: 73.5000
Current Photon Energy (eV): 45.000
Current Deviation Angle: 29.905
Vertical Exit Slits (um): 100.000
Exit slit y axis position: 1.3625
Horizontal Exit Slits (um):  889.156
Exit slit z axis position: 1.9229
Mitutoyo position (mm): 

Dose on sample (mJ/cm^2): NaN

ENERGY CALIBRATION:
offset grating G1200: yes
Delta 0 order G1200:  -1100.0
offset grating G1800: not
Delta 0 order G1800:  0.0
offset grating GNIM: not
Delta 0 order GNIM:  0.0
ZERO ORDER POSITIONS:
Grating G1200: Mirror position:  4938.0
Grating position: -105355.0
Grating G1800: 
Mirror position:  4938.0
Grating position: -106345.0
Grating GNIM: 
Mirror position:  10000.0
Grating position: 227300.0

Initial filter: Al filter

EXPERIMENTAL CHAMBER CONFIGURATION: 
PsiC (deg):   -0.000186
Phi Analyzer (degrees): 89.993255
Theta Manipulator (degrees): -44.000040
Theta Analyzer (degrees): -135.001468
PhiM (degrees): -0.003077
XM (mm): 2.500900
YM (mm): 9.917125
ZM (mm): (Warning: for kinetic energy scans, 
this parameter is given in the scan settings) 
-15.001363
TiltM (°): 0.000138

ELECTRON ANALYZER CONFIGURATION: 
Current Kinetik energy (eV): 35.0
Mode: DE = COST
Pass Energy (eV):  100.000
CEM: ON
Bias Front-Back CEM (V): 3499.698
Bias Back-Collector CEM (V): 100.874
Bias Retard-Front CEM: 100.104COIL VALUES
Ix (amps):2.820
Iy (amps): 6.789
Iz (amps): 37.403

POLARIZATION SELECTOR CONFIGURATION:
Psi1 (rad): -0.001665535
Psi2 (rad): 0.001417093
Z min position (mm): 46.599650
DZ position (mm): 18.599100
Zmin 0 (mm): 65.700000
DZ0 (mm): 54.000000

BEAM SELECTOR CONFIGURATION:
Zmin position (mm): NaN
DZ position (mm): NaN
Y+ position (mm): NaN
Y- position (mm): NaN

CHANNEL ELECTRON MULTIPLIER CONFIGURATION:
CEM configured: OFF
Bias CEM: 0.000000

FLUORESCENCE DETECTOR CONFIGURATION:
Not configured

LUMINESCENCE MONOCHROMATOR CONFIGURATION:
Optical fiber position (mm): 0.000000
Optical fiber Switch inside: ON
Optical fiber Switch outside: ON
Monochromator wavelength (A): 0.000000
Limit Switches: ON

I0 MONITOR PARAMETERS:
I0 detector position(mm): NaN
Lower switch: OFF
Upper switch: OFF
Valve status:unread

PRESSURE PARAMETERS:
Monitor chamber pressure (mbar): 9.041e-10
Experimental chamber pressure -ION GAUGE-(mbar): 0.000000E+0

XMCD PARAMETERS:
Xmcd OFF
Xmcd Direction -
Xmcd current (A): 0.000000

Gated scan off

Instrument 1: AMMETER KEITHLEY 6517A B
Measure type: Current
range type: set range value
range value (ampere):  200 pA
Integration time:  set NPLC value
NPLC value: 10.000
Digital filter count: 2
SAMPLE BIAS (V): -30.000
Vsource: ON
Output Voltage value: 30.000
Vsource range: 1000 V

Range Keithley B changed to 20 nA

Range Keithley B changed to 200 pA

Range Keithley B changed to 20 nA

Range Keithley B changed to 200 pA

Keithley B Bias (V) changed to: 0.000000

Range Keithley B changed to 20 nA

Keithley B Bias (V) changed to: -30.000000

Range Keithley B changed to 200 pA

Range Keithley B changed to 20 nA

Range Keithley B changed to 200 pA

Range Keithley B changed to 20 nA

Range Keithley B changed to 200 pA

Range Keithley B changed to 20 nA

Range Keithley B changed to 200 pA

Keithley B Bias (V) changed to: 0.000000

Keithley B Bias (V) changed to: -30.000000

Range Keithley B changed to 20 nA

Range Keithley B changed to 200 pA

Range Keithley B changed to 20 nA

Range Keithley B changed to 200 pA

Range Keithley B changed to 20 nA

Range Keithley B changed to 200 pA

Instrument 2: AMMETER KEITHLEY 6517A A
Measure type: Current
range type: set range value
range value (ampere):  200 pA
Integration time:  set NPLC value
NPLC value: 10.000
Digital filter count: 2
Vsource: OFF
Output Voltage value: -0.000
Vsource range: 100 V
Trigger source: bus

Range Keithley A changed to 20 nA

Range Keithley A changed to 200 nA

Range Keithley A changed to 200 pA

Range Keithley A changed to 20 nA

Range Keithley A changed to 200 pA

Range Keithley A changed to 20 nA

Range Keithley A changed to 200 nA

Range Keithley A changed to 200 pA

Range Keithley A changed to 20 nA

Range Keithley A changed to 200 pA

Range Keithley A changed to 20 nA

Range Keithley A changed to 200 nA

Range Keithley A changed to 200 pA

Range Keithley A changed to 20 nA

Range Keithley A changed to 200 pA

Range Keithley A changed to 20 nA

Range Keithley A changed to 200 pA

Range Keithley A changed to 20 nA

Range Keithley A changed to 200 pA

Range Keithley A changed to 20 nA

Range Keithley A changed to 200 pA

Range Keithley A changed to 20 nA

Range Keithley A changed to 200 pA

Instrument 3: COUNTER ORTEC 996Integration time (sec): 1.000


Range Keithley C changed to 200 nA


Range Keithley C changed to 2 uA


Range Keithley C changed to 200 nA


Range Keithley C changed to 2 uA


Range Keithley C changed to 200 pA


________________________________________________________________________________

RelativeTime (msec)	Photon Energy	Var_1	Var_2	INSTR_1_Sample with Bias _(ampere ) 	INSTR_2_Monitor IM_(ampere)  	INSTR_3_Ortec 996 counts_(counts)	I_BPM_sum (Amps)	
________________________________________________________________________________

2.09894000E+5	3.99999907E+0	0.00000000E+0	0.00000000E+0	2.48500000E-13	6.40000000E-14	0.00000000E+0	8.95557242E-5
2.21806000E+5	4.09999548E+0	0.00000000E+0	0.00000000E+0	2.49600000E-13	6.25000000E-14	0.00000000E+0	8.96148699E-5
2.32500000E+5	4.19999364E+0	0.00000000E+0	0.00000000E+0	2.49100000E-13	6.53000000E-14	0.00000000E+0	8.95432788E-5
2.42883000E+5	4.29999548E+0	0.00000000E+0	0.00000000E+0	2.52900000E-13	5.90000000E-14	0.00000000E+0	8.96057504E-5
2.52936000E+5	4.40000093E+0	0.00000000E+0	0.00000000E+0	2.58200000E-13	6.27000000E-14	0.00000000E+0	8.97037553E-5
2.62917000E+5	4.49999667E+0	0.00000000E+0	0.00000000E+0	2.56300000E-13	6.08000000E-14	0.00000000E+0	8.97434163E-5
2.72927000E+5	4.60000989E+0	0.00000000E+0	0.00000000E+0	2.47600000E-13	5.99000000E-14	0.00000000E+0	8.94624280E-5
2.82978000E+5	4.69999323E+0	0.00000000E+0	0.00000000E+0	2.49100000E-13	6.52000000E-14	0.00000000E+0	8.95658957E-5
2.92700000E+5	4.79999311E+0	0.00000000E+0	0.00000000E+0	2.44000000E-13	6.04000000E-14	0.00000000E+0	8.91321080E-5
3.02637000E+5	4.90000901E+0	0.00000000E+0	0.00000000E+0	2.59200000E-13	6.52000000E-14	0.00000000E+0	8.95764398E-5
3.12292000E+5	5.00000439E+0	0.00000000E+0	0.00000000E+0	2.43300000E-13	6.07000000E-14	0.00000000E+0	8.94356357E-5
3.21649000E+5	5.09999488E+0	0.00000000E+0	0.00000000E+0	2.37000000E-13	5.87000000E-14	0.00000000E+0	8.92923879E-5
3.30960000E+5	5.20000199E+0	0.00000000E+0	0.00000000E+0	2.65500000E-13	7.76000000E-14	0.00000000E+0	8.95215201E-5
3.40306000E+5	5.30000365E+0	0.00000000E+0	0.00000000E+0	2.46100000E-13	6.07000000E-14	0.00000000E+0	8.93608289E-5
3.49450000E+5	5.39998791E+0	0.00000000E+0	0.00000000E+0	2.45800000E-13	6.67000000E-14	0.00000000E+0	8.96858322E-5
3.58803000E+5	5.50000542E+0	0.00000000E+0	0.00000000E+0	2.54500000E-13	6.58000000E-14	0.00000000E+0	8.92828571E-5
3.67826000E+5	5.59998742E+0	0.00000000E+0	0.00000000E+0	2.37200000E-13	7.03000000E-14	0.00000000E+0	8.94976335E-5
3.76818000E+5	5.70001904E+0	0.00000000E+0	0.00000000E+0	2.50100000E-13	7.21000000E-14	0.00000000E+0	8.95820814E-5
3.85821000E+5	5.80000087E+0	0.00000000E+0	0.00000000E+0	2.53900000E-13	7.23000000E-14	0.00000000E+0	8.92839598E-5
3.94867000E+5	5.90000371E+0	0.00000000E+0	0.00000000E+0	2.52200000E-13	7.50000000E-14	0.00000000E+0	8.89007436E-5
4.03707000E+5	5.99999233E+0	0.00000000E+0	0.00000000E+0	2.56900000E-13	8.19000000E-14	0.00000000E+0	8.93622326E-5
4.12204000E+5	6.10000898E+0	0.00000000E+0	0.00000000E+0	2.57600000E-13	8.10000000E-14	0.00000000E+0	8.95898479E-5
4.20437000E+5	6.20000673E+0	0.00000000E+0	0.00000000E+0	2.53300000E-13	8.55000000E-14	0.00000000E+0	8.98700434E-5
4.28766000E+5	6.29999544E+0	0.00000000E+0	0.00000000E+0	2.47300000E-13	9.21000000E-14	0.00000000E+0	8.94953864E-5
4.37095000E+5	6.39999048E+0	0.00000000E+0	0.00000000E+0	2.49100000E-13	9.75000000E-14	0.00000000E+0	8.97809672E-5
4.45277000E+5	6.50000221E+0	0.00000000E+0	0.00000000E+0	2.45500000E-13	1.07400000E-13	0.00000000E+0	8.97703069E-5
4.53650000E+5	6.60000923E+0	0.00000000E+0	0.00000000E+0	2.46700000E-13	1.11000000E-13	0.00000000E+0	9.03163094E-5
4.61895000E+5	6.70000037E+0	0.00000000E+0	0.00000000E+0	2.48400000E-13	1.27200000E-13	0.00000000E+0	8.96961349E-5
4.70258000E+5	6.79999847E+0	0.00000000E+0	0.00000000E+0	2.58700000E-13	1.42400000E-13	0.00000000E+0	8.97196102E-5
4.78463000E+5	6.90000654E+0	0.00000000E+0	0.00000000E+0	2.41500000E-13	1.61400000E-13	0.00000000E+0	8.96796512E-5
4.86684000E+5	6.99999598E+0	0.00000000E+0	0.00000000E+0	2.54900000E-13	1.78100000E-13	0.00000000E+0	8.97045809E-5
4.94538000E+5	7.10000431E+0	0.00000000E+0	0.00000000E+0	2.50200000E-13	2.00900000E-13	0.00000000E+0	8.93121796E-5
5.02239000E+5	7.20000041E+0	0.00000000E+0	0.00000000E+0	2.50900000E-13	2.25500000E-13	1.00000000E+0	8.96802830E-5
5.10134000E+5	7.30000015E+0	0.00000000E+0	0.00000000E+0	2.45600000E-13	2.50100000E-13	0.00000000E+0	8.92592060E-5
5.18002000E+5	7.40000569E+0	0.00000000E+0	0.00000000E+0	2.48500000E-13	2.66200000E-13	0.00000000E+0	8.93426555E-5
5.26670000E+5	7.49999833E+0	0.00000000E+0	0.00000000E+0	2.52600000E-13	2.65600000E-13	0.00000000E+0	8.96262693E-5
5.34464000E+5	7.60000604E+0	0.00000000E+0	0.00000000E+0	2.60400000E-13	2.22500000E-13	0.00000000E+0	8.96743345E-5
5.42287000E+5	7.69999320E+0	0.00000000E+0	0.00000000E+0	2.43900000E-13	1.56300000E-13	0.00000000E+0	8.96405386E-5
5.50006000E+5	7.80000067E+0	0.00000000E+0	0.00000000E+0	2.38900000E-13	9.43000000E-14	0.00000000E+0	8.93269884E-5
5.57696000E+5	7.90000272E+0	0.00000000E+0	0.00000000E+0	2.51600000E-13	6.40000000E-14	0.00000000E+0	8.96123695E-5
5.65491000E+5	7.99998142E+0	0.00000000E+0	0.00000000E+0	2.47400000E-13	5.90000000E-14	0.00000000E+0	8.95972418E-5
