G:\BEAR_storage\User_Experiments\20220317_arneodo\file(1)_Region 1__0044.txt
Ring Energy (GeV): 2
Lifetime (hours): 16.0225
Scan beginning: 3/18/2022	9:32:40 PM
Ring current (mA): 279.83
Source position: x (mm): -0.003 x' (mrad): 0.005 y (mm): 0.003 y' (mrad): -0.003
Scan end: 3/18/2022	9:35:02 PM
Ring current (mA): 279.13
Source position: x (mm): -0.003 x' (mrad): 0.005 y (mm): 0.003 y' (mrad): -0.003

SCAN TYPE: PHOTON ENERGY VS VAR_1 VS VAR_2

FILE INFO: FILE INFO:

SCAN PARAMETERS
waiting time (ms): 0
Number of scans: 1
Current scan number: 1
DARK OFF 
PREDARK OFF 

SCAN PARAMETERS
Regions configuration: 
number of regions: 7
Mirror grating scan: on
Timed acquisition: off
Region 1:
Initial energy (eV): 40.000000
Final energy (eV): 72.000000
Delta energy (eV): 1.000000
Deviation angle choice: Higher order rejection
Deviation angle (°): NaN
Al filter
G1200 channel
range keithley B 20 nA
range keithley C 2 uA
range keithley A 2 uA
Var_1: PsiC 0.000000
Var_2: PhiM0.000000
Bias CEM (V): 0.000000
Bias Keithley B (V): -30.000000
Name region: 
Region 2:
Initial energy (eV): 70.000000
Final energy (eV): 102.000000
Delta energy (eV): 1.000000
Deviation angle choice: Higher order rejection
Deviation angle (°): NaN
Si filter
G1200 channel
range keithley B 20 nA
range keithley C 2 uA
range keithley A 20 nA
Var_1: PsiC 0.000000
Var_2: PhiM0.000000
Bias CEM (V): 0.000000
Bias Keithley B (V): -30.000000
Name region: 
Region 3:
Initial energy (eV): 98.000000
Final energy (eV): 260.000000
Delta energy (eV): 1.000000
Deviation angle choice: Higher order rejection
Deviation angle (°): NaN
Full Beam
G1200 channel
range keithley B 20 nA
range keithley C 20 uA
range keithley A 200 nA
Var_1: PsiC 0.000000
Var_2: PhiM0.000000
Bias CEM (V): 0.000000
Bias Keithley B (V): -30.000000
Name region: 
Region 4:
Initial energy (eV): 255.000000
Final energy (eV): 320.000000
Delta energy (eV): 1.000000
Deviation angle choice: Higher order rejection
Deviation angle (°): NaN
filter Ag 0.6 um
G1200 channel
range keithley B 200 pA
range keithley C 2 uA
range keithley A 200 pA
Var_1: PsiC 0.000000
Var_2: PhiM0.000000
Bias CEM (V): 0.000000
Bias Keithley B (V): -30.000000
Name region: 
Region 5:
Initial energy (eV): 255.000000
Final energy (eV): 320.000000
Delta energy (eV): 1.000000
Deviation angle choice: Higher order rejection
Deviation angle (°): NaN
Full Beam
G1200 channel
range keithley B 200 pA
range keithley C 2 uA
range keithley A 200 pA
Var_1: PsiC 0.000000
Var_2: PhiM0.000000
Bias CEM (V): 0.000000
Bias Keithley B (V): -30.000000
Name region: 
Region 6:
Initial energy (eV): 315.000000
Final energy (eV): 1200.000000
Delta energy (eV): 5.000000
Deviation angle choice: Higher order rejection
Deviation angle (°): NaN
Full Beam
G1200 channel
range keithley B 20 nA
range keithley C 2 uA
range keithley A 20 nA
Var_1: PsiC 0.000000
Var_2: PhiM0.000000
Bias CEM (V): 0.000000
Bias Keithley B (V): -30.000000
Name region: 
Region 7:
Initial energy (eV): 1190.000000
Final energy (eV): 1500.000000
Delta energy (eV): 5.000000
Deviation angle choice: Higher order rejection
Deviation angle (°): NaN
filter Ag 0.6 um
G1200 channel
range keithley B 200 pA
range keithley C 2 uA
range keithley A 200 pA
Var_1: PsiC 0.000000
Var_2: PhiM0.000000
Bias CEM (V): 0.000000
Bias Keithley B (V): -30.000000
Name region: 

BEAR MONOCHROMATOR CONFIGURATION: 
Current Grating Position:     -144940.60
Current Mirror Position: 2556.9
Current Grating: G1200
P2 phiz position:  0.0000
Mono axis position: 25.0000
Current Photon Energy (eV): 142.000
Current Deviation Angle: 155.000
Vertical Exit Slits (um): 450.000
Exit slit y axis position: 2.2375
Horizontal Exit Slits (um):  889.156
Exit slit z axis position: 1.9229
Mitutoyo position (mm): 

Dose on sample (mJ/cm^2): NaN

ENERGY CALIBRATION:
offset grating G1200: yes
Delta 0 order G1200:  -800.0
offset grating G1800: not
Delta 0 order G1800:  0.0
offset grating GNIM: not
Delta 0 order GNIM:  0.0
ZERO ORDER POSITIONS:
Grating G1200: Mirror position:  4938.0
Grating position: -105355.0
Grating G1800: 
Mirror position:  4938.0
Grating position: -106345.0
Grating GNIM: 
Mirror position:  10000.0
Grating position: 227300.0

Initial filter: Full Beam

EXPERIMENTAL CHAMBER CONFIGURATION: 
PsiC (deg):   -0.000186
Phi Analyzer (degrees): 89.992308
Theta Manipulator (degrees): -44.000040
Theta Analyzer (degrees): -135.001468
PhiM (degrees): -0.004103
XM (mm): 0.000713
YM (mm): 19.932987
ZM (mm): (Warning: for kinetic energy scans, 
this parameter is given in the scan settings) 
-6.601438
TiltM (°): 0.000138

ELECTRON ANALYZER CONFIGURATION: 
Current Kinetik energy (eV): 35.0
Mode: DE = COST
Pass Energy (eV):  50.000
CEM: ON
Bias Front-Back CEM (V): 3499.561
Bias Back-Collector CEM (V): 100.874
Bias Retard-Front CEM: 100.087COIL VALUES
Ix (amps):2.820
Iy (amps): 6.789
Iz (amps): 37.337

POLARIZATION SELECTOR CONFIGURATION:
Psi1 (rad): -0.001665535
Psi2 (rad): 0.001417093
Z min position (mm): 46.599650
DZ position (mm): 18.599100
Zmin 0 (mm): 66.500000
DZ0 (mm): 53.000000

BEAM SELECTOR CONFIGURATION:
Zmin position (mm): NaN
DZ position (mm): NaN
Y+ position (mm): NaN
Y- position (mm): NaN

CHANNEL ELECTRON MULTIPLIER CONFIGURATION:
CEM configured: OFF
Bias CEM: 0.000000

FLUORESCENCE DETECTOR CONFIGURATION:
Not configured

LUMINESCENCE MONOCHROMATOR CONFIGURATION:
Optical fiber position (mm): 0.000000
Optical fiber Switch inside: OFF
Optical fiber Switch outside: ON
Monochromator wavelength (A): 0.000000
Limit Switches: ON

I0 MONITOR PARAMETERS:
I0 detector position(mm): -0.000000E+0
Lower switch: OFF
Upper switch: OFF
Valve status:open

PRESSURE PARAMETERS:
Monitor chamber pressure (mbar): 9.024e-10
Experimental chamber pressure -ION GAUGE-(mbar): 0.000000E+0

XMCD PARAMETERS:
Xmcd OFF
Xmcd Direction -
Xmcd current (A): 0.000000

Gated scan off

Instrument 1: AMMETER KEITHLEY 6517A B
Measure type: Current
range type: set range value
range value (ampere):  200 pA
Integration time:  set NPLC value
NPLC value: 10.000
Digital filter count: 2
SAMPLE BIAS (V): -30.000
Vsource: ON
Output Voltage value: 30.000
Vsource range: 1000 V

Range Keithley B changed to 20 nA

Range Keithley B changed to 200 pA

Range Keithley B changed to 20 nA

Range Keithley B changed to 200 pA

Range Keithley B changed to 20 nA

Range Keithley B changed to 200 pA

Range Keithley B changed to 20 nA

Range Keithley B changed to 200 nA

Range Keithley B changed to 200 pA

Range Keithley B changed to 20 nA

Range Keithley B changed to 200 pA

Range Keithley B changed to 20 nA

Range Keithley B changed to 200 pA

Range Keithley B changed to 20 nA

Range Keithley B changed to 200 pA

Range Keithley B changed to 20 nA

Range Keithley B changed to 200 pA

Range Keithley B changed to 20 nA

Range Keithley B changed to 200 pA

Range Keithley B changed to 20 nA

Instrument 2: AMMETER KEITHLEY 6517A A
Measure type: Current
range type: set range value
range value (ampere):  200 nA
Integration time:  set NPLC value
NPLC value: 10.000
Digital filter count: 2
Vsource: OFF
Output Voltage value: -0.000
Vsource range: 100 V
Trigger source: bus

Range Keithley A changed to 20 nA

Range Keithley A changed to 200 nA

Range Keithley A changed to 200 pA

Range Keithley A changed to 20 nA

Range Keithley A changed to 200 pA

Range Keithley A changed to 20 nA

Range Keithley A changed to 200 nA

Range Keithley A changed to 200 pA

Range Keithley A changed to 20 nA

Range Keithley A changed to 200 pA

Range Keithley A changed to 20 nA

Range Keithley A changed to 200 nA

Range Keithley A changed to 200 pA

Range Keithley A changed to 20 nA

Range Keithley A changed to 200 pA

Range Keithley A changed to 20 nA

Range Keithley A changed to 200 pA

Range Keithley A changed to 20 nA

Range Keithley A changed to 200 pA

Range Keithley A changed to 20 nA

Range Keithley A changed to 200 pA

Range Keithley A changed to 20 nA

Range Keithley A changed to 200 nA

Range Keithley A changed to 200 pA

Range Keithley A changed to 20 nA

Range Keithley A changed to 200 pA

Range Keithley A changed to 20 nA

Range Keithley A changed to 200 nA

Range Keithley A changed to 200 pA

Range Keithley A changed to 20 nA

Range Keithley A changed to 200 nA

Range Keithley A changed to 200 pA

Range Keithley A changed to 20 nA

Range Keithley A changed to 200 pA

Range Keithley A changed to 20 nA

Range Keithley A changed to 200 pA

Range Keithley A changed to 20 nA

Range Keithley A changed to 200 nA

Range Keithley A changed to 200 pA

Range Keithley A changed to 20 nA

Range Keithley A changed to 200 pA

Range Keithley A changed to 20 nA

Range Keithley A changed to 200 nA

Range Keithley A changed to 20 nA

Range Keithley A changed to 200 nA

Range Keithley A changed to 200 pA

Range Keithley A changed to 20 nA

Range Keithley A changed to 200 nA

Range Keithley A changed to 2 uA

Range Keithley A changed to 20 nA

Range Keithley A changed to 200 nA

Range Keithley A changed to 2 uA

Range Keithley A changed to 20 nA

Instrument 3: AMMETER KEITHLEY 6517A C 
Measure type: Current
range type: set range value
range value (ampere):  2 uA
Integration time:  set NPLC value
NPLC value: 10.000
Digital filter count: 2
Vsource: OFF
Output Voltage value: -0.000
Vsource range: 100 V
Trigger source: bus


________________________________________________________________________________

RelativeTime (msec)	Photon Energy	Var_1	Var_2	INSTR_1_Sample with Bias _(ampere ) 	INSTR_2_Monitor IM_(ampere)  	INSTR_3_Diode A3_(ampere)	I_BPM_sum (Amps)	
________________________________________________________________________________

5.00200000E+3	3.99998128E+1	0.00000000E+0	0.00000000E+0	-5.40000000E-13	2.87000000E-10	5.34750000E-8	8.15336801E-5
1.02330000E+4	4.09997508E+1	0.00000000E+0	0.00000000E+0	-6.80000000E-13	3.41000000E-10	6.08270000E-8	8.14117558E-5
1.43810000E+4	4.19999914E+1	0.00000000E+0	0.00000000E+0	-3.80000000E-13	3.64000000E-10	6.84740000E-8	8.13344009E-5
1.85880000E+4	4.30001101E+1	0.00000000E+0	0.00000000E+0	-1.00000000E-13	3.95000000E-10	7.71710000E-8	8.13502647E-5
2.27740000E+4	4.39999194E+1	0.00000000E+0	0.00000000E+0	-4.70000000E-13	4.17000000E-10	8.63100000E-8	8.12978216E-5
2.69580000E+4	4.49999541E+1	0.00000000E+0	0.00000000E+0	-4.80000000E-13	4.39000000E-10	9.61920000E-8	8.14975001E-5
3.09740000E+4	4.59999233E+1	0.00000000E+0	0.00000000E+0	-5.60000000E-13	4.77000000E-10	1.07582000E-7	8.10362704E-5
3.50550000E+4	4.70000736E+1	0.00000000E+0	0.00000000E+0	-4.30000000E-13	5.14000000E-10	1.19991000E-7	8.11060168E-5
3.90670000E+4	4.79999202E+1	0.00000000E+0	0.00000000E+0	-4.00000000E-13	5.42000000E-10	1.30764000E-7	8.15051683E-5
4.29890000E+4	4.89999023E+1	0.00000000E+0	0.00000000E+0	-1.70000000E-13	5.59000000E-10	1.36491000E-7	8.17180314E-5
4.69440000E+4	4.99999350E+1	0.00000000E+0	0.00000000E+0	-3.30000000E-13	5.52000000E-10	1.34132000E-7	8.13307978E-5
5.10090000E+4	5.10000363E+1	0.00000000E+0	0.00000000E+0	-3.60000000E-13	5.28000000E-10	1.27418000E-7	8.14170607E-5
5.49480000E+4	5.19999552E+1	0.00000000E+0	0.00000000E+0	-2.80000000E-13	5.37000000E-10	1.32218000E-7	8.13654103E-5
5.87310000E+4	5.29997070E+1	0.00000000E+0	0.00000000E+0	-4.30000000E-13	5.92000000E-10	1.54719000E-7	8.10112633E-5
6.26920000E+4	5.40001858E+1	0.00000000E+0	0.00000000E+0	-4.10000000E-13	6.68000000E-10	1.85204000E-7	8.12071927E-5
6.65400000E+4	5.50000322E+1	0.00000000E+0	0.00000000E+0	-3.80000000E-13	7.49000000E-10	2.17409000E-7	8.14066805E-5
7.04320000E+4	5.59998818E+1	0.00000000E+0	0.00000000E+0	-3.10000000E-13	8.27000000E-10	2.51449000E-7	8.12388934E-5
7.42410000E+4	5.69999203E+1	0.00000000E+0	0.00000000E+0	-4.10000000E-13	9.14000000E-10	2.87658000E-7	8.13763477E-5
7.81440000E+4	5.79999762E+1	0.00000000E+0	0.00000000E+0	-5.00000000E-14	1.00600000E-9	3.27571000E-7	8.16113569E-5
8.20630000E+4	5.89999379E+1	0.00000000E+0	0.00000000E+0	-2.60000000E-13	1.11400000E-9	3.73555000E-7	8.12795080E-5
8.58450000E+4	5.99999592E+1	0.00000000E+0	0.00000000E+0	-4.70000000E-13	1.22900000E-9	4.24798000E-7	8.12643267E-5
8.95280000E+4	6.09999996E+1	0.00000000E+0	0.00000000E+0	-3.70000000E-13	1.33300000E-9	4.78028000E-7	8.12402733E-5
9.33140000E+4	6.19997761E+1	0.00000000E+0	0.00000000E+0	-3.30000000E-13	1.46000000E-9	5.31919000E-7	8.10728974E-5
9.70230000E+4	6.29998944E+1	0.00000000E+0	0.00000000E+0	-3.00000000E-13	1.56700000E-9	5.84250000E-7	8.11106957E-5
1.00838000E+5	6.40001187E+1	0.00000000E+0	0.00000000E+0	-5.50000000E-13	1.66600000E-9	6.32011000E-7	8.12164642E-5
1.04528000E+5	6.49998129E+1	0.00000000E+0	0.00000000E+0	-2.30000000E-13	1.74600000E-9	6.73343000E-7	8.16228696E-5
1.08194000E+5	6.59998549E+1	0.00000000E+0	0.00000000E+0	-3.70000000E-13	1.81100000E-9	7.06173000E-7	8.11084635E-5
1.11691000E+5	6.70000153E+1	0.00000000E+0	0.00000000E+0	-3.60000000E-13	1.85300000E-9	7.32780000E-7	8.13919671E-5
1.15327000E+5	6.80002341E+1	0.00000000E+0	0.00000000E+0	-3.70000000E-13	1.90400000E-9	7.65569000E-7	8.11226018E-5
1.19101000E+5	6.89997959E+1	0.00000000E+0	0.00000000E+0	-7.50000000E-13	1.99500000E-9	8.16622000E-7	8.10429163E-5
1.22675000E+5	6.99998166E+1	0.00000000E+0	0.00000000E+0	-4.20000000E-13	2.11500000E-9	8.84729000E-7	8.12692322E-5
1.26242000E+5	7.10001500E+1	0.00000000E+0	0.00000000E+0	-5.00000000E-13	2.23000000E-9	9.40765000E-7	8.14837106E-5
1.29831000E+5	7.20000218E+1	0.00000000E+0	0.00000000E+0	-1.40000000E-13	1.87000000E-9	7.86857000E-7	8.12520452E-5
