G:\BEAR_storage\User_Experiments\20220317_arneodo\file(1)_Region 4__0078.txt
Ring Energy (GeV): 2
Lifetime (hours): 15.3861
Scan beginning: 3/21/2022	3:16:07 PM
Ring current (mA): 308.8
Source position: x (mm): 0.006 x' (mrad): 0.001 y (mm): 0.001 y' (mrad): 0.002
Scan end: 3/21/2022	3:38:49 PM
Ring current (mA): 308.61
Source position: x (mm): 0.006 x' (mrad): 0 y (mm): 0 y' (mrad): 0.002

SCAN TYPE: PHOTON ENERGY VS VAR_1 VS VAR_2

FILE INFO: FILE INFO:

SCAN PARAMETERS
waiting time (ms): 0
Number of scans: 1
Current scan number: 1
DARK OFF 
PREDARK OFF 

SCAN PARAMETERS
Regions configuration: 
number of regions: 6
Mirror grating scan: on
Timed acquisition: off
Region 1:
Initial energy (eV): 40.000000
Final energy (eV): 72.000000
Delta energy (eV): 1.000000
Deviation angle choice: Higher order rejection
Deviation angle (°): NaN
Al filter
G1200 channel
range keithley B 20 nA
range keithley C 200 nA
range keithley A 20 nA
Var_1: PsiC 0.000000
Var_2: PhiM0.000000
Bias CEM (V): 0.000000
Bias Keithley B (V): -30.000000
Name region: 
Region 2:
Initial energy (eV): 70.000000
Final energy (eV): 102.000000
Delta energy (eV): 1.000000
Deviation angle choice: Higher order rejection
Deviation angle (°): NaN
Si filter
G1200 channel
range keithley B 20 nA
range keithley C 200 nA
range keithley A 20 nA
Var_1: PsiC 0.000000
Var_2: PhiM0.000000
Bias CEM (V): 0.000000
Bias Keithley B (V): -30.000000
Name region: 
Region 3:
Initial energy (eV): 98.000000
Final energy (eV): 260.000000
Delta energy (eV): 1.000000
Deviation angle choice: Higher order rejection
Deviation angle (°): NaN
Full Beam
G1200 channel
range keithley B 20 nA
range keithley C 200 nA
range keithley A 200 nA
Var_1: PsiC 0.000000
Var_2: PhiM0.000000
Bias CEM (V): 0.000000
Bias Keithley B (V): -30.000000
Name region: 
Region 4:
Initial energy (eV): 255.000000
Final energy (eV): 320.000000
Delta energy (eV): 1.000000
Deviation angle choice: Higher order rejection
Deviation angle (°): NaN
filter Ag 0.6 um
G1200 channel
range keithley B 200 pA
range keithley C 200 nA
range keithley A 200 pA
Var_1: PsiC 0.000000
Var_2: PhiM0.000000
Bias CEM (V): 0.000000
Bias Keithley B (V): -30.000000
Name region: 
Region 5:
Initial energy (eV): 315.000000
Final energy (eV): 1200.000000
Delta energy (eV): 5.000000
Deviation angle choice: Higher order rejection
Deviation angle (°): NaN
Full Beam
G1200 channel
range keithley B 20 nA
range keithley C 200 nA
range keithley A 20 nA
Var_1: PsiC 0.000000
Var_2: PhiM0.000000
Bias CEM (V): 0.000000
Bias Keithley B (V): -30.000000
Name region: 
Region 6:
Initial energy (eV): 1190.000000
Final energy (eV): 1500.000000
Delta energy (eV): 5.000000
Deviation angle choice: Higher order rejection
Deviation angle (°): NaN
filter Ag 0.6 um
G1200 channel
range keithley B 200 pA
range keithley C 200 nA
range keithley A 200 pA
Var_1: PsiC 0.000000
Var_2: PhiM0.000000
Bias CEM (V): 0.000000
Bias Keithley B (V): -30.000000
Name region: 

BEAR MONOCHROMATOR CONFIGURATION: 
Current Grating Position:     -178681.70
Current Mirror Position: 2557.1
Current Grating: G1200
P2 phiz position:  0.0000
Mono axis position: 25.0000
Current Photon Energy (eV): 73.040
Current Deviation Angle: 155.000
Vertical Exit Slits (um): 100.000
Exit slit y axis position: 1.3625
Horizontal Exit Slits (um):  889.156
Exit slit z axis position: 1.9229
Mitutoyo position (mm): 

Dose on sample (mJ/cm^2): NaN

ENERGY CALIBRATION:
offset grating G1200: yes
Delta 0 order G1200:  -1100.0
offset grating G1800: not
Delta 0 order G1800:  0.0
offset grating GNIM: not
Delta 0 order GNIM:  0.0
ZERO ORDER POSITIONS:
Grating G1200: Mirror position:  4938.0
Grating position: -105355.0
Grating G1800: 
Mirror position:  4938.0
Grating position: -106345.0
Grating GNIM: 
Mirror position:  10000.0
Grating position: 227300.0

Initial filter: Si filter

EXPERIMENTAL CHAMBER CONFIGURATION: 
PsiC (deg):   -0.000186
Phi Analyzer (degrees): 89.993255
Theta Manipulator (degrees): -44.000040
Theta Analyzer (degrees): -135.001468
PhiM (degrees): -0.003077
XM (mm): 2.500913
YM (mm): 9.947225
ZM (mm): (Warning: for kinetic energy scans, 
this parameter is given in the scan settings) 
-15.001400
TiltM (°): 0.000138

ELECTRON ANALYZER CONFIGURATION: 
Current Kinetik energy (eV): 35.0
Mode: DE = COST
Pass Energy (eV):  100.000
CEM: ON
Bias Front-Back CEM (V): 3499.698
Bias Back-Collector CEM (V): 100.874
Bias Retard-Front CEM: 100.104COIL VALUES
Ix (amps):2.820
Iy (amps): 6.789
Iz (amps): 37.403

POLARIZATION SELECTOR CONFIGURATION:
Psi1 (rad): -0.001665535
Psi2 (rad): 0.001417093
Z min position (mm): 46.599650
DZ position (mm): 18.599100
Zmin 0 (mm): 65.700000
DZ0 (mm): 54.000000

BEAM SELECTOR CONFIGURATION:
Zmin position (mm): NaN
DZ position (mm): NaN
Y+ position (mm): NaN
Y- position (mm): NaN

CHANNEL ELECTRON MULTIPLIER CONFIGURATION:
CEM configured: OFF
Bias CEM: 0.000000

FLUORESCENCE DETECTOR CONFIGURATION:
Not configured

LUMINESCENCE MONOCHROMATOR CONFIGURATION:
Optical fiber position (mm): 0.000000
Optical fiber Switch inside: ON
Optical fiber Switch outside: ON
Monochromator wavelength (A): 0.000000
Limit Switches: ON

I0 MONITOR PARAMETERS:
I0 detector position(mm): NaN
Lower switch: OFF
Upper switch: OFF
Valve status:unread

PRESSURE PARAMETERS:
Monitor chamber pressure (mbar): 9.646e-10
Experimental chamber pressure -ION GAUGE-(mbar): 0.000000E+0

XMCD PARAMETERS:
Xmcd OFF
Xmcd Direction -
Xmcd current (A): 0.000000

Gated scan off

Instrument 1: AMMETER KEITHLEY 6517A B
Measure type: Current
range type: set range value
range value (ampere):  200 pA
Integration time:  set NPLC value
NPLC value: 10.000
Digital filter count: 2
SAMPLE BIAS (V): -30.000
Vsource: ON
Output Voltage value: 30.000
Vsource range: 1000 V

Range Keithley B changed to 20 nA

Range Keithley B changed to 200 pA

Range Keithley B changed to 20 nA

Range Keithley B changed to 200 pA

Keithley B Bias (V) changed to: 0.000000

Range Keithley B changed to 20 nA

Keithley B Bias (V) changed to: -30.000000

Range Keithley B changed to 200 pA

Range Keithley B changed to 20 nA

Instrument 2: AMMETER KEITHLEY 6517A A
Measure type: Current
range type: set range value
range value (ampere):  200 pA
Integration time:  set NPLC value
NPLC value: 10.000
Digital filter count: 2
Vsource: OFF
Output Voltage value: -0.000
Vsource range: 100 V
Trigger source: bus

Range Keithley A changed to 20 nA

Range Keithley A changed to 200 nA

Range Keithley A changed to 200 pA

Range Keithley A changed to 20 nA

Range Keithley A changed to 200 pA

Range Keithley A changed to 20 nA

Range Keithley A changed to 200 nA

Range Keithley A changed to 200 pA

Range Keithley A changed to 20 nA

Instrument 3: COUNTER ORTEC 996Integration time (sec): 1.000


Range Keithley C changed to 200 nA


Range Keithley C changed to 2 uA


Range Keithley C changed to 200 nA


________________________________________________________________________________

RelativeTime (msec)	Photon Energy	Var_1	Var_2	INSTR_1_Sample with Bias _(ampere ) 	INSTR_2_Monitor IM_(ampere)  	INSTR_3_Ortec 996 counts_(counts)	I_BPM_sum (Amps)	
________________________________________________________________________________

1.01700600E+6	2.55005936E+2	0.00000000E+0	0.00000000E+0	4.34600000E-13	8.74900000E-12	0.00000000E+0	8.94504147E-5
1.02292800E+6	2.55993285E+2	0.00000000E+0	0.00000000E+0	4.38300000E-13	9.14940000E-12	0.00000000E+0	8.92356323E-5
1.02808000E+6	2.57001355E+2	0.00000000E+0	0.00000000E+0	4.34700000E-13	9.35400000E-12	2.00000000E+0	8.92176347E-5
1.03321400E+6	2.57999772E+2	0.00000000E+0	0.00000000E+0	4.38700000E-13	9.52180000E-12	2.00000000E+0	8.93042105E-5
1.03843600E+6	2.58998429E+2	0.00000000E+0	0.00000000E+0	4.37400000E-13	9.66260000E-12	3.00000000E+0	8.94376385E-5
1.04357600E+6	2.59999788E+2	0.00000000E+0	0.00000000E+0	4.41100000E-13	9.79650000E-12	1.00000000E+0	8.90980916E-5
1.04870100E+6	2.61000482E+2	0.00000000E+0	0.00000000E+0	4.34600000E-13	9.92000000E-12	1.00000000E+0	8.93268543E-5
1.05381300E+6	2.61999499E+2	0.00000000E+0	0.00000000E+0	4.40000000E-13	1.00549000E-11	1.00000000E+0	8.92227756E-5
1.05896200E+6	2.63004348E+2	0.00000000E+0	0.00000000E+0	4.35200000E-13	1.01925000E-11	1.00000000E+0	8.90894877E-5
1.06411200E+6	2.63998697E+2	0.00000000E+0	0.00000000E+0	4.41600000E-13	1.03369000E-11	0.00000000E+0	8.92643111E-5
1.06922900E+6	2.64998406E+2	0.00000000E+0	0.00000000E+0	4.38100000E-13	1.04890000E-11	0.00000000E+0	8.92039495E-5
1.07440900E+6	2.65998259E+2	0.00000000E+0	0.00000000E+0	4.42300000E-13	1.06555000E-11	2.00000000E+0	8.94541162E-5
1.07956300E+6	2.67001082E+2	0.00000000E+0	0.00000000E+0	4.37900000E-13	1.08283000E-11	1.00000000E+0	8.90995162E-5
1.08470600E+6	2.67998641E+2	0.00000000E+0	0.00000000E+0	4.43500000E-13	1.10097000E-11	2.00000000E+0	8.90897201E-5
1.08984000E+6	2.69002455E+2	0.00000000E+0	0.00000000E+0	4.45400000E-13	1.12020000E-11	1.00000000E+0	8.92869579E-5
1.09495200E+6	2.69998008E+2	0.00000000E+0	0.00000000E+0	4.42200000E-13	1.13981000E-11	1.00000000E+0	8.93365013E-5
1.10008400E+6	2.71005407E+2	0.00000000E+0	0.00000000E+0	4.45900000E-13	1.15980000E-11	3.00000000E+0	8.92538266E-5
1.10525300E+6	2.71997419E+2	0.00000000E+0	0.00000000E+0	4.43100000E-13	1.17827000E-11	0.00000000E+0	8.92269837E-5
1.11033800E+6	2.72993777E+2	0.00000000E+0	0.00000000E+0	4.35700000E-13	1.19690000E-11	0.00000000E+0	8.95216900E-5
1.11549400E+6	2.74007674E+2	0.00000000E+0	0.00000000E+0	4.30900000E-13	1.21419000E-11	3.00000000E+0	8.91705888E-5
1.12064900E+6	2.74998594E+2	0.00000000E+0	0.00000000E+0	4.27800000E-13	1.23074000E-11	1.00000000E+0	8.92933445E-5
1.12584400E+6	2.76000351E+2	0.00000000E+0	0.00000000E+0	4.31400000E-13	1.24450000E-11	2.00000000E+0	8.91501593E-5
1.13169400E+6	2.76998642E+2	0.00000000E+0	0.00000000E+0	4.26600000E-13	1.25732000E-11	0.00000000E+0	8.93155502E-5
1.13680200E+6	2.78004144E+2	0.00000000E+0	0.00000000E+0	4.31700000E-13	1.26799000E-11	0.00000000E+0	8.91824590E-5
1.14195200E+6	2.79004513E+2	0.00000000E+0	0.00000000E+0	4.37200000E-13	1.27763000E-11	2.00000000E+0	8.90881823E-5
1.14714500E+6	2.79998557E+2	0.00000000E+0	0.00000000E+0	4.24900000E-13	1.28625000E-11	1.00000000E+0	8.91217517E-5
1.15227200E+6	2.80999193E+2	0.00000000E+0	0.00000000E+0	4.30500000E-13	1.29546000E-11	0.00000000E+0	8.91957628E-5
1.15745700E+6	2.81999636E+2	0.00000000E+0	0.00000000E+0	4.20100000E-13	1.30477000E-11	2.00000000E+0	8.94157367E-5
1.16257200E+6	2.83002739E+2	0.00000000E+0	0.00000000E+0	4.17500000E-13	1.31430000E-11	2.00000000E+0	8.91714977E-5
1.16769800E+6	2.83998102E+2	0.00000000E+0	0.00000000E+0	4.24500000E-13	1.32510000E-11	0.00000000E+0	8.89195101E-5
1.17284800E+6	2.84994645E+2	0.00000000E+0	0.00000000E+0	4.06000000E-13	1.33351000E-11	1.00000000E+0	8.87878226E-5
1.17796800E+6	2.86002573E+2	0.00000000E+0	0.00000000E+0	4.08200000E-13	1.33999000E-11	1.00000000E+0	8.90319394E-5
1.18311100E+6	2.87002108E+2	0.00000000E+0	0.00000000E+0	4.12300000E-13	1.33909000E-11	0.00000000E+0	8.90687572E-5
1.18826500E+6	2.87998499E+2	0.00000000E+0	0.00000000E+0	4.03500000E-13	1.32902000E-11	1.00000000E+0	8.94808578E-5
1.19339900E+6	2.89003023E+2	0.00000000E+0	0.00000000E+0	3.86600000E-13	1.37038000E-11	0.00000000E+0	8.94558924E-5
1.19851300E+6	2.89994664E+2	0.00000000E+0	0.00000000E+0	3.74700000E-13	1.52179000E-11	0.00000000E+0	8.94679683E-5
1.20362700E+6	2.91001299E+2	0.00000000E+0	0.00000000E+0	3.55200000E-13	2.50831000E-11	0.00000000E+0	8.93758910E-5
1.20877700E+6	2.92000264E+2	0.00000000E+0	0.00000000E+0	3.80200000E-13	3.20147000E-11	0.00000000E+0	8.92790722E-5
1.21390800E+6	2.92990813E+2	0.00000000E+0	0.00000000E+0	3.55500000E-13	3.42216000E-11	0.00000000E+0	8.97150981E-5
1.21904800E+6	2.93998131E+2	0.00000000E+0	0.00000000E+0	4.04100000E-13	4.24441000E-11	2.00000000E+0	8.94974547E-5
1.22418000E+6	2.95000761E+2	0.00000000E+0	0.00000000E+0	4.10400000E-13	4.49305000E-11	4.00000000E+0	8.96051722E-5
1.22935900E+6	2.96004414E+2	0.00000000E+0	0.00000000E+0	3.94800000E-13	4.47102000E-11	3.00000000E+0	8.94303309E-5
1.23445200E+6	2.97001175E+2	0.00000000E+0	0.00000000E+0	3.96900000E-13	4.24719000E-11	1.00000000E+0	8.95011889E-5
1.23957600E+6	2.97995206E+2	0.00000000E+0	0.00000000E+0	4.16500000E-13	4.08639000E-11	2.00000000E+0	8.93993782E-5
1.24476000E+6	2.98998862E+2	0.00000000E+0	0.00000000E+0	4.28600000E-13	4.20789000E-11	4.00000000E+0	8.91295211E-5
1.24990100E+6	3.00001637E+2	0.00000000E+0	0.00000000E+0	4.48200000E-13	4.45186000E-11	0.00000000E+0	8.95342725E-5
1.25502500E+6	3.00994208E+2	0.00000000E+0	0.00000000E+0	4.60800000E-13	4.67437000E-11	7.00000000E+0	8.94236373E-5
1.26015400E+6	3.02002455E+2	0.00000000E+0	0.00000000E+0	4.61700000E-13	4.86863000E-11	2.00000000E+0	8.94647854E-5
1.26526600E+6	3.03005103E+2	0.00000000E+0	0.00000000E+0	4.75700000E-13	5.01860000E-11	2.00000000E+0	8.93310743E-5
1.27040700E+6	3.04000535E+2	0.00000000E+0	0.00000000E+0	4.81700000E-13	5.14950000E-11	3.00000000E+0	8.92058717E-5
1.27551000E+6	3.05000695E+2	0.00000000E+0	0.00000000E+0	4.85600000E-13	5.27349000E-11	2.00000000E+0	8.92861413E-5
1.28065300E+6	3.06003963E+2	0.00000000E+0	0.00000000E+0	4.89000000E-13	5.41183000E-11	1.00000000E+0	8.93728333E-5
1.28577300E+6	3.06997631E+2	0.00000000E+0	0.00000000E+0	5.10400000E-13	5.53111000E-11	3.00000000E+0	8.93479096E-5
1.29091100E+6	3.08003711E+2	0.00000000E+0	0.00000000E+0	5.12200000E-13	5.66112000E-11	2.00000000E+0	8.92275976E-5
1.29606500E+6	3.09008731E+2	0.00000000E+0	0.00000000E+0	5.22400000E-13	5.79563000E-11	5.00000000E+0	8.92552184E-5
1.30120100E+6	3.09991768E+2	0.00000000E+0	0.00000000E+0	5.33900000E-13	5.91282000E-11	5.00000000E+0	8.91369479E-5
1.30634300E+6	3.11004285E+2	0.00000000E+0	0.00000000E+0	5.41200000E-13	6.03439000E-11	5.00000000E+0	8.94217866E-5
1.31150500E+6	3.11996727E+2	0.00000000E+0	0.00000000E+0	5.48700000E-13	6.16784000E-11	2.00000000E+0	8.93293100E-5
1.31666200E+6	3.12999328E+2	0.00000000E+0	0.00000000E+0	5.61600000E-13	6.31279000E-11	6.00000000E+0	8.91812371E-5
1.32181000E+6	3.14002925E+2	0.00000000E+0	0.00000000E+0	5.73500000E-13	6.46993000E-11	3.00000000E+0	8.91505586E-5
1.32691700E+6	3.15001062E+2	0.00000000E+0	0.00000000E+0	5.83400000E-13	6.63911000E-11	3.00000000E+0	8.92522292E-5
1.33208300E+6	3.16001016E+2	0.00000000E+0	0.00000000E+0	5.98400000E-13	6.82483000E-11	3.00000000E+0	8.94145804E-5
1.33722100E+6	3.16997559E+2	0.00000000E+0	0.00000000E+0	6.04800000E-13	7.00775000E-11	2.00000000E+0	8.93372016E-5
1.34235000E+6	3.17996159E+2	0.00000000E+0	0.00000000E+0	6.13100000E-13	7.16538000E-11	7.00000000E+0	8.94018757E-5
1.34748900E+6	3.19010323E+2	0.00000000E+0	0.00000000E+0	6.18300000E-13	7.29072000E-11	5.00000000E+0	8.93015372E-5
1.35260900E+6	3.19994997E+2	0.00000000E+0	0.00000000E+0	6.14300000E-13	7.38339000E-11	1.00000000E+1	8.93708932E-5
