G:\BEAR_storage\User_Experiments\20220317_arneodo\file(1)_Region 4__0073.txt
Ring Energy (GeV): 2
Lifetime (hours): 15.2392
Scan beginning: 3/21/2022	1:51:28 PM
Ring current (mA): 308.78
Source position: x (mm): 0.006 x' (mrad): 0 y (mm): 0.002 y' (mrad): 0.002
Scan end: 3/21/2022	2:14:09 PM
Ring current (mA): 308.92
Source position: x (mm): 0.005 x' (mrad): 0 y (mm): 0.001 y' (mrad): 0.002

SCAN TYPE: PHOTON ENERGY VS VAR_1 VS VAR_2

FILE INFO: FILE INFO:

SCAN PARAMETERS
waiting time (ms): 0
Number of scans: 1
Current scan number: 1
DARK OFF 
PREDARK OFF 

SCAN PARAMETERS
Regions configuration: 
number of regions: 6
Mirror grating scan: on
Timed acquisition: off
Region 1:
Initial energy (eV): 40.000000
Final energy (eV): 72.000000
Delta energy (eV): 1.000000
Deviation angle choice: Higher order rejection
Deviation angle (°): NaN
Al filter
G1200 channel
range keithley B 20 nA
range keithley C 200 nA
range keithley A 20 nA
Var_1: PsiC 0.000000
Var_2: PhiM0.000000
Bias CEM (V): 0.000000
Bias Keithley B (V): -30.000000
Name region: 
Region 2:
Initial energy (eV): 70.000000
Final energy (eV): 102.000000
Delta energy (eV): 1.000000
Deviation angle choice: Higher order rejection
Deviation angle (°): NaN
Si filter
G1200 channel
range keithley B 20 nA
range keithley C 200 nA
range keithley A 20 nA
Var_1: PsiC 0.000000
Var_2: PhiM0.000000
Bias CEM (V): 0.000000
Bias Keithley B (V): -30.000000
Name region: 
Region 3:
Initial energy (eV): 98.000000
Final energy (eV): 260.000000
Delta energy (eV): 1.000000
Deviation angle choice: Higher order rejection
Deviation angle (°): NaN
Full Beam
G1200 channel
range keithley B 20 nA
range keithley C 200 nA
range keithley A 200 nA
Var_1: PsiC 0.000000
Var_2: PhiM0.000000
Bias CEM (V): 0.000000
Bias Keithley B (V): -30.000000
Name region: 
Region 4:
Initial energy (eV): 255.000000
Final energy (eV): 320.000000
Delta energy (eV): 1.000000
Deviation angle choice: Higher order rejection
Deviation angle (°): NaN
filter Ag 0.6 um
G1200 channel
range keithley B 200 pA
range keithley C 200 nA
range keithley A 200 pA
Var_1: PsiC 0.000000
Var_2: PhiM0.000000
Bias CEM (V): 0.000000
Bias Keithley B (V): -30.000000
Name region: 
Region 5:
Initial energy (eV): 315.000000
Final energy (eV): 1200.000000
Delta energy (eV): 5.000000
Deviation angle choice: Higher order rejection
Deviation angle (°): NaN
Full Beam
G1200 channel
range keithley B 20 nA
range keithley C 200 nA
range keithley A 20 nA
Var_1: PsiC 0.000000
Var_2: PhiM0.000000
Bias CEM (V): 0.000000
Bias Keithley B (V): -30.000000
Name region: 
Region 6:
Initial energy (eV): 1190.000000
Final energy (eV): 1500.000000
Delta energy (eV): 5.000000
Deviation angle choice: Higher order rejection
Deviation angle (°): NaN
filter Ag 0.6 um
G1200 channel
range keithley B 200 pA
range keithley C 200 nA
range keithley A 200 pA
Var_1: PsiC 0.000000
Var_2: PhiM0.000000
Bias CEM (V): 0.000000
Bias Keithley B (V): -30.000000
Name region: 

BEAR MONOCHROMATOR CONFIGURATION: 
Current Grating Position:     -236071.60
Current Mirror Position: 2557.0
Current Grating: G1200
P2 phiz position:  0.0000
Mono axis position: 25.0000
Current Photon Energy (eV): 40.000
Current Deviation Angle: 155.000
Vertical Exit Slits (um): 100.000
Exit slit y axis position: 1.3625
Horizontal Exit Slits (um):  889.156
Exit slit z axis position: 1.9229
Mitutoyo position (mm): 

Dose on sample (mJ/cm^2): NaN

ENERGY CALIBRATION:
offset grating G1200: not
Delta 0 order G1200:  0.0
offset grating G1800: not
Delta 0 order G1800:  0.0
offset grating GNIM: not
Delta 0 order GNIM:  0.0
ZERO ORDER POSITIONS:
Grating G1200: Mirror position:  4938.0
Grating position: -105355.0
Grating G1800: 
Mirror position:  4938.0
Grating position: -106345.0
Grating GNIM: 
Mirror position:  10000.0
Grating position: 227300.0

Initial filter: Full Beam

EXPERIMENTAL CHAMBER CONFIGURATION: 
PsiC (deg):   -0.000186
Phi Analyzer (degrees): 89.992308
Theta Manipulator (degrees): -44.000040
Theta Analyzer (degrees): -135.001468
PhiM (degrees): -0.003077
XM (mm): -4.499238
YM (mm): 25.962825
ZM (mm): (Warning: for kinetic energy scans, 
this parameter is given in the scan settings) 
-14.001438
TiltM (°): 0.000138

ELECTRON ANALYZER CONFIGURATION: 
Current Kinetik energy (eV): 35.0
Mode: DE = COST
Pass Energy (eV):  100.000
CEM: ON
Bias Front-Back CEM (V): 3499.698
Bias Back-Collector CEM (V): 100.874
Bias Retard-Front CEM: 100.104COIL VALUES
Ix (amps):2.820
Iy (amps): 6.789
Iz (amps): 37.403

POLARIZATION SELECTOR CONFIGURATION:
Psi1 (rad): -0.001665535
Psi2 (rad): 0.001417093
Z min position (mm): 46.599650
DZ position (mm): 18.599100
Zmin 0 (mm): 65.700000
DZ0 (mm): 54.000000

BEAM SELECTOR CONFIGURATION:
Zmin position (mm): NaN
DZ position (mm): NaN
Y+ position (mm): NaN
Y- position (mm): NaN

CHANNEL ELECTRON MULTIPLIER CONFIGURATION:
CEM configured: OFF
Bias CEM: 0.000000

FLUORESCENCE DETECTOR CONFIGURATION:
Not configured

LUMINESCENCE MONOCHROMATOR CONFIGURATION:
Optical fiber position (mm): 0.000000
Optical fiber Switch inside: ON
Optical fiber Switch outside: ON
Monochromator wavelength (A): 0.000000
Limit Switches: ON

I0 MONITOR PARAMETERS:
I0 detector position(mm): NaN
Lower switch: OFF
Upper switch: OFF
Valve status:unread

PRESSURE PARAMETERS:
Monitor chamber pressure (mbar): 9.255e-10
Experimental chamber pressure -ION GAUGE-(mbar): 0.000000E+0

XMCD PARAMETERS:
Xmcd OFF
Xmcd Direction -
Xmcd current (A): 0.000000

Gated scan off

Instrument 1: AMMETER KEITHLEY 6517A B
Measure type: Current
range type: set range value
range value (ampere):  200 pA
Integration time:  set NPLC value
NPLC value: 10.000
Digital filter count: 2
SAMPLE BIAS (V): -30.000
Vsource: ON
Output Voltage value: 30.000
Vsource range: 1000 V

Range Keithley B changed to 20 nA

Range Keithley B changed to 200 pA

Range Keithley B changed to 20 nA

Instrument 2: AMMETER KEITHLEY 6517A A
Measure type: Current
range type: set range value
range value (ampere):  200 pA
Integration time:  set NPLC value
NPLC value: 10.000
Digital filter count: 2
Vsource: OFF
Output Voltage value: -0.000
Vsource range: 100 V
Trigger source: bus

Range Keithley A changed to 20 nA

Range Keithley A changed to 200 nA

Range Keithley A changed to 200 pA

Range Keithley A changed to 20 nA

Instrument 3: COUNTER ORTEC 996Integration time (sec): 1.000


Range Keithley C changed to 200 nA


________________________________________________________________________________

RelativeTime (msec)	Photon Energy	Var_1	Var_2	INSTR_1_Sample with Bias _(ampere ) 	INSTR_2_Monitor IM_(ampere)  	INSTR_3_Ortec 996 counts_(counts)	I_BPM_sum (Amps)	
________________________________________________________________________________

1.01721600E+6	2.55005047E+2	0.00000000E+0	0.00000000E+0	1.55030000E-12	8.74060000E-12	4.00000000E+0	8.94668358E-5
1.02311300E+6	2.55993285E+2	0.00000000E+0	0.00000000E+0	1.62400000E-12	9.15280000E-12	2.00000000E+0	8.93062072E-5
1.02820700E+6	2.56999666E+2	0.00000000E+0	0.00000000E+0	1.62070000E-12	9.36370000E-12	2.00000000E+0	8.94332784E-5
1.03336500E+6	2.58002379E+2	0.00000000E+0	0.00000000E+0	1.61620000E-12	9.53230000E-12	6.00000000E+0	8.91490655E-5
1.03847400E+6	2.58998315E+2	0.00000000E+0	0.00000000E+0	1.66390000E-12	9.66950000E-12	5.00000000E+0	8.93099981E-5
1.04363400E+6	2.60001511E+2	0.00000000E+0	0.00000000E+0	1.64420000E-12	9.80550000E-12	8.00000000E+0	8.92032908E-5
1.04881900E+6	2.60997939E+2	0.00000000E+0	0.00000000E+0	1.65900000E-12	9.94140000E-12	1.00000000E+0	8.94460904E-5
1.05395600E+6	2.62002175E+2	0.00000000E+0	0.00000000E+0	1.69390000E-12	1.00716000E-11	7.00000000E+0	8.93437820E-5
1.05912500E+6	2.62998611E+2	0.00000000E+0	0.00000000E+0	1.66200000E-12	1.02147000E-11	6.00000000E+0	8.89899390E-5
1.06424800E+6	2.64000699E+2	0.00000000E+0	0.00000000E+0	1.70630000E-12	1.03599000E-11	8.00000000E+0	8.94629555E-5
1.06937000E+6	2.64997457E+2	0.00000000E+0	0.00000000E+0	1.66570000E-12	1.05131000E-11	2.00000000E+0	8.91240971E-5
1.07450600E+6	2.65998141E+2	0.00000000E+0	0.00000000E+0	1.66970000E-12	1.06800000E-11	3.00000000E+0	8.90966522E-5
1.07964000E+6	2.67002163E+2	0.00000000E+0	0.00000000E+0	1.69140000E-12	1.08488000E-11	2.00000000E+0	8.92130839E-5
1.08479800E+6	2.68000454E+2	0.00000000E+0	0.00000000E+0	1.71730000E-12	1.10342000E-11	5.00000000E+0	8.92547356E-5
1.08996900E+6	2.68998805E+2	0.00000000E+0	0.00000000E+0	1.77570000E-12	1.12267000E-11	1.00000000E+0	8.89422851E-5
1.09509400E+6	2.69999722E+2	0.00000000E+0	0.00000000E+0	1.76260000E-12	1.14220000E-11	4.00000000E+0	8.92133283E-5
1.10026000E+6	2.71000971E+2	0.00000000E+0	0.00000000E+0	1.83510000E-12	1.16237000E-11	5.00000000E+0	8.91333597E-5
1.10538500E+6	2.72003494E+2	0.00000000E+0	0.00000000E+0	1.83800000E-12	1.18207000E-11	3.00000000E+0	8.92153399E-5
1.11053200E+6	2.72995024E+2	0.00000000E+0	0.00000000E+0	1.87200000E-12	1.20074000E-11	7.00000000E+0	8.91779171E-5
1.11564300E+6	2.74001149E+2	0.00000000E+0	0.00000000E+0	1.82400000E-12	1.21799000E-11	5.00000000E+0	8.91623961E-5
1.12075300E+6	2.75000488E+2	0.00000000E+0	0.00000000E+0	1.86940000E-12	1.23386000E-11	2.00000000E+0	8.91431527E-5
1.12588800E+6	2.76003272E+2	0.00000000E+0	0.00000000E+0	1.87070000E-12	1.24798000E-11	5.00000000E+0	8.90480982E-5
1.13173700E+6	2.76999537E+2	0.00000000E+0	0.00000000E+0	1.90600000E-12	1.25979000E-11	3.00000000E+0	8.92160194E-5
1.13685700E+6	2.78003115E+2	0.00000000E+0	0.00000000E+0	1.82970000E-12	1.27026000E-11	4.00000000E+0	8.90161680E-5
1.14197500E+6	2.79000762E+2	0.00000000E+0	0.00000000E+0	1.80360000E-12	1.27998000E-11	2.00000000E+0	8.90238779E-5
1.14708300E+6	2.80003891E+2	0.00000000E+0	0.00000000E+0	1.78850000E-12	1.28896000E-11	6.00000000E+0	8.89223533E-5
1.15223000E+6	2.80998539E+2	0.00000000E+0	0.00000000E+0	1.66570000E-12	1.29805000E-11	3.00000000E+0	8.94018190E-5
1.15736800E+6	2.82000425E+2	0.00000000E+0	0.00000000E+0	1.68190000E-12	1.30668000E-11	4.00000000E+0	8.90509116E-5
1.16247900E+6	2.82998766E+2	0.00000000E+0	0.00000000E+0	1.61710000E-12	1.31672000E-11	2.00000000E+0	8.91019093E-5
1.16759500E+6	2.84000100E+2	0.00000000E+0	0.00000000E+0	1.55880000E-12	1.32717000E-11	7.00000000E+0	8.89395522E-5
1.17272800E+6	2.84995582E+2	0.00000000E+0	0.00000000E+0	1.46150000E-12	1.33555000E-11	4.00000000E+0	8.91265856E-5
1.17786500E+6	2.86001630E+2	0.00000000E+0	0.00000000E+0	1.39540000E-12	1.34197000E-11	4.00000000E+0	8.90453177E-5
1.18299900E+6	2.87000752E+2	0.00000000E+0	0.00000000E+0	1.24210000E-12	1.33963000E-11	2.00000000E+0	8.92746466E-5
1.18811700E+6	2.87999863E+2	0.00000000E+0	0.00000000E+0	1.07630000E-12	1.32441000E-11	2.00000000E+0	8.89001744E-5
1.19326700E+6	2.89002064E+2	0.00000000E+0	0.00000000E+0	8.82100000E-13	1.37121000E-11	1.00000000E+0	8.89658498E-5
1.19837000E+6	2.89998385E+2	0.00000000E+0	0.00000000E+0	5.87200000E-13	1.52922000E-11	1.00000000E+0	8.89450328E-5
1.20358200E+6	2.90996727E+2	0.00000000E+0	0.00000000E+0	3.21500000E-13	2.58141000E-11	0.00000000E+0	8.91378896E-5
1.20869200E+6	2.92005283E+2	0.00000000E+0	0.00000000E+0	4.22900000E-13	3.19627000E-11	0.00000000E+0	8.90519487E-5
1.21379200E+6	2.92992775E+2	0.00000000E+0	0.00000000E+0	4.27900000E-13	3.45719000E-11	0.00000000E+0	8.89387386E-5
1.21892100E+6	2.93999260E+2	0.00000000E+0	0.00000000E+0	5.98100000E-13	4.26582000E-11	0.00000000E+0	8.90657650E-5
1.22402300E+6	2.95000761E+2	0.00000000E+0	0.00000000E+0	4.98000000E-13	4.47962000E-11	1.00000000E+0	8.88020085E-5
1.22912300E+6	2.96002131E+2	0.00000000E+0	0.00000000E+0	5.30300000E-13	4.44862000E-11	3.00000000E+0	8.89700221E-5
1.23429300E+6	2.97003759E+2	0.00000000E+0	0.00000000E+0	5.36100000E-13	4.21333000E-11	1.00000000E+0	8.88501005E-5
1.23944400E+6	2.97997223E+2	0.00000000E+0	0.00000000E+0	6.62900000E-13	4.08194000E-11	1.00000000E+0	8.92140197E-5
1.24452600E+6	2.98997994E+2	0.00000000E+0	0.00000000E+0	7.38300000E-13	4.22858000E-11	1.00000000E+0	8.95250636E-5
1.24965400E+6	2.99998137E+2	0.00000000E+0	0.00000000E+0	8.37100000E-13	4.47291000E-11	4.00000000E+0	8.92716037E-5
1.25483600E+6	3.00999629E+2	0.00000000E+0	0.00000000E+0	8.92300000E-13	4.69764000E-11	2.00000000E+0	8.94324171E-5
1.25999000E+6	3.01999215E+2	0.00000000E+0	0.00000000E+0	9.25900000E-13	4.88459000E-11	0.00000000E+0	8.92598676E-5
1.26510800E+6	3.03007475E+2	0.00000000E+0	0.00000000E+0	9.87700000E-13	5.03630000E-11	4.00000000E+0	8.91695308E-5
1.27026000E+6	3.03995767E+2	0.00000000E+0	0.00000000E+0	1.05840000E-12	5.16382000E-11	2.00000000E+0	8.92841237E-5
1.27541100E+6	3.05001742E+2	0.00000000E+0	0.00000000E+0	1.10300000E-12	5.29036000E-11	2.00000000E+0	8.91108142E-5
1.28052100E+6	3.05999296E+2	0.00000000E+0	0.00000000E+0	1.17450000E-12	5.42936000E-11	3.00000000E+0	8.92854827E-5
1.28568100E+6	3.06999149E+2	0.00000000E+0	0.00000000E+0	1.21330000E-12	5.54818000E-11	2.00000000E+0	8.90990185E-5
1.29082900E+6	3.08000366E+2	0.00000000E+0	0.00000000E+0	1.27240000E-12	5.67957000E-11	4.00000000E+0	8.91920732E-5
1.29592300E+6	3.09009956E+2	0.00000000E+0	0.00000000E+0	1.34620000E-12	5.81143000E-11	4.00000000E+0	8.93163549E-5
1.30103500E+6	3.09996377E+2	0.00000000E+0	0.00000000E+0	1.47460000E-12	5.93032000E-11	6.00000000E+0	8.93366741E-5
1.30618000E+6	3.11004442E+2	0.00000000E+0	0.00000000E+0	1.49830000E-12	6.05243000E-11	5.00000000E+0	8.93653529E-5
1.31134100E+6	3.11999056E+2	0.00000000E+0	0.00000000E+0	1.56880000E-12	6.18641000E-11	2.00000000E+0	8.92181473E-5
1.31645900E+6	3.12995896E+2	0.00000000E+0	0.00000000E+0	1.67730000E-12	6.33173000E-11	4.00000000E+0	8.90833544E-5
1.32159900E+6	3.14001508E+2	0.00000000E+0	0.00000000E+0	1.76460000E-12	6.48970000E-11	3.00000000E+0	8.91726123E-5
1.32674000E+6	3.15002164E+2	0.00000000E+0	0.00000000E+0	1.79230000E-12	6.66109000E-11	4.00000000E+0	8.91925292E-5
1.33184900E+6	3.16004987E+2	0.00000000E+0	0.00000000E+0	1.93660000E-12	6.84871000E-11	4.00000000E+0	8.93101709E-5
1.33695500E+6	3.16999621E+2	0.00000000E+0	0.00000000E+0	2.08670000E-12	7.03173000E-11	5.00000000E+0	8.90921610E-5
1.34211900E+6	3.17999843E+2	0.00000000E+0	0.00000000E+0	2.15160000E-12	7.18867000E-11	4.00000000E+0	8.92597871E-5
1.34725900E+6	3.19005332E+2	0.00000000E+0	0.00000000E+0	2.18800000E-12	7.31068000E-11	2.00000000E+0	8.90409993E-5
1.35237400E+6	3.19997920E+2	0.00000000E+0	0.00000000E+0	2.27620000E-12	7.40075000E-11	3.00000000E+0	8.91441809E-5
