G:\BEAR_storage\User_Experiments\20220317_arneodo\file(1)_Region 2__0083.txt
Ring Energy (GeV): 2
Lifetime (hours): 15.6872
Scan beginning: 3/21/2022	11:00:25 PM
Ring current (mA): 309.13
Source position: x (mm): 0.008 x' (mrad): -0 y (mm): -0.002 y' (mrad): 0.002
Scan end: 3/21/2022	11:10:19 PM
Ring current (mA): 308.36
Source position: x (mm): 0.008 x' (mrad): -0 y (mm): -0.003 y' (mrad): 0.002

SCAN TYPE: PHOTON ENERGY VS VAR_1 VS VAR_2

FILE INFO: FILE INFO:

SCAN PARAMETERS
waiting time (ms): 1000
Number of scans: 1
Current scan number: 1
DARK OFF 
PREDARK OFF 

SCAN PARAMETERS
Regions configuration: 
number of regions: 7
Mirror grating scan: on
Timed acquisition: off
Region 1:
Initial energy (eV): 3.000000
Final energy (eV): 4.500000
Delta energy (eV): 0.100000
Deviation angle choice: Degrees: 
Deviation angle (°): NaN
B270 window
GNIM channel
range keithley B 200 pA
range keithley C 200 pA
range keithley A 200 pA
Var_1: PsiC 0.000000
Var_2: PhiM0.000000
Bias CEM (V): 0.000000
Bias Keithley B (V): -30.000000
Name region: 
Region 2:
Initial energy (eV): 4.000000
Final energy (eV): 8.000000
Delta energy (eV): 0.100000
Deviation angle choice: Degrees: 
Deviation angle (°): NaN
SiO2 window
GNIM channel
range keithley B 200 pA
range keithley C 200 pA
range keithley A 200 pA
Var_1: PsiC 0.000000
Var_2: PhiM0.000000
Bias CEM (V): 0.000000
Bias Keithley B (V): -30.000000
Name region: 
Region 3:
Initial energy (eV): 7.000000
Final energy (eV): 12.000000
Delta energy (eV): 0.100000
Deviation angle choice: Degrees: 
Deviation angle (°): NaN
filter LiF window
GNIM channel
range keithley B 200 pA
range keithley C 200 pA
range keithley A 200 pA
Var_1: PsiC 0.000000
Var_2: PhiM0.000000
Bias CEM (V): 0.000000
Bias Keithley B (V): -30.000000
Name region: 
Region 4:
Initial energy (eV): 11.000000
Final energy (eV): 18.000000
Delta energy (eV): 0.100000
Deviation angle choice: Degrees: 
Deviation angle (°): NaN
In filter
GNIM channel
range keithley B 200 pA
range keithley C 200 pA
range keithley A 200 pA
Var_1: PsiC 0.000000
Var_2: PhiM0.000000
Bias CEM (V): 0.000000
Bias Keithley B (V): -30.000000
Name region: 
Region 5:
Initial energy (eV): 15.000000
Final energy (eV): 25.000000
Delta energy (eV): 0.100000
Deviation angle choice: Degrees: 
Deviation angle (°): NaN
Sn filter
GNIM channel
range keithley B 200 pA
range keithley C 200 pA
range keithley A 200 pA
Var_1: PsiC 0.000000
Var_2: PhiM0.000000
Bias CEM (V): 0.000000
Bias Keithley B (V): -30.000000
Name region: 
Region 6:
Initial energy (eV): 23.000000
Final energy (eV): 45.000000
Delta energy (eV): 0.100000
Deviation angle choice: Degrees: 
Deviation angle (°): NaN
Full Beam
GNIM channel
range keithley B 20 nA
range keithley C 200 pA
range keithley A 20 nA
Var_1: PsiC 0.000000
Var_2: PhiM0.000000
Bias CEM (V): 0.000000
Bias Keithley B (V): -30.000000
Name region: 
Region 7:
Initial energy (eV): 23.000000
Final energy (eV): 45.000000
Delta energy (eV): 0.100000
Deviation angle choice: Degrees: 
Deviation angle (°): NaN
Al filter
GNIM channel
range keithley B 20 nA
range keithley C 200 pA
range keithley A 20 nA
Var_1: PsiC 0.000000
Var_2: PhiM0.000000
Bias CEM (V): 0.000000
Bias Keithley B (V): -30.000000
Name region: 

BEAR MONOCHROMATOR CONFIGURATION: 
Current Grating Position:     200056.90
Current Mirror Position: 10000.1
Current Grating: GNIM
P2 phiz position:  -0.0195
Mono axis position: 73.5000
Current Photon Energy (eV): 45.000
Current Deviation Angle: 29.905
Vertical Exit Slits (um): 100.000
Exit slit y axis position: 1.3625
Horizontal Exit Slits (um):  889.156
Exit slit z axis position: 1.9229
Mitutoyo position (mm): 

Dose on sample (mJ/cm^2): NaN

ENERGY CALIBRATION:
offset grating G1200: yes
Delta 0 order G1200:  -1100.0
offset grating G1800: not
Delta 0 order G1800:  0.0
offset grating GNIM: not
Delta 0 order GNIM:  0.0
ZERO ORDER POSITIONS:
Grating G1200: Mirror position:  4938.0
Grating position: -105355.0
Grating G1800: 
Mirror position:  4938.0
Grating position: -106345.0
Grating GNIM: 
Mirror position:  10000.0
Grating position: 227300.0

Initial filter: Al filter

EXPERIMENTAL CHAMBER CONFIGURATION: 
PsiC (deg):   -0.000186
Phi Analyzer (degrees): 89.993255
Theta Manipulator (degrees): -44.000040
Theta Analyzer (degrees): -135.001468
PhiM (degrees): -0.003077
XM (mm): -4.499125
YM (mm): 25.932050
ZM (mm): (Warning: for kinetic energy scans, 
this parameter is given in the scan settings) 
-14.001375
TiltM (°): 0.000138

ELECTRON ANALYZER CONFIGURATION: 
Current Kinetik energy (eV): 35.0
Mode: DE = COST
Pass Energy (eV):  100.000
CEM: ON
Bias Front-Back CEM (V): 3499.698
Bias Back-Collector CEM (V): 100.874
Bias Retard-Front CEM: 100.104COIL VALUES
Ix (amps):2.820
Iy (amps): 6.789
Iz (amps): 37.403

POLARIZATION SELECTOR CONFIGURATION:
Psi1 (rad): -0.001665535
Psi2 (rad): 0.001417093
Z min position (mm): 46.599650
DZ position (mm): 18.599100
Zmin 0 (mm): 65.700000
DZ0 (mm): 54.000000

BEAM SELECTOR CONFIGURATION:
Zmin position (mm): NaN
DZ position (mm): NaN
Y+ position (mm): NaN
Y- position (mm): NaN

CHANNEL ELECTRON MULTIPLIER CONFIGURATION:
CEM configured: OFF
Bias CEM: 0.000000

FLUORESCENCE DETECTOR CONFIGURATION:
Not configured

LUMINESCENCE MONOCHROMATOR CONFIGURATION:
Optical fiber position (mm): 0.000000
Optical fiber Switch inside: ON
Optical fiber Switch outside: ON
Monochromator wavelength (A): 0.000000
Limit Switches: ON

I0 MONITOR PARAMETERS:
I0 detector position(mm): NaN
Lower switch: OFF
Upper switch: OFF
Valve status:unread

PRESSURE PARAMETERS:
Monitor chamber pressure (mbar): 9.049e-10
Experimental chamber pressure -ION GAUGE-(mbar): 0.000000E+0

XMCD PARAMETERS:
Xmcd OFF
Xmcd Direction -
Xmcd current (A): 0.000000

Gated scan off

Instrument 1: AMMETER KEITHLEY 6517A B
Measure type: Current
range type: set range value
range value (ampere):  200 pA
Integration time:  set NPLC value
NPLC value: 10.000
Digital filter count: 2
SAMPLE BIAS (V): -30.000
Vsource: ON
Output Voltage value: 30.000
Vsource range: 1000 V

Range Keithley B changed to 20 nA

Range Keithley B changed to 200 pA

Range Keithley B changed to 20 nA

Range Keithley B changed to 200 pA

Keithley B Bias (V) changed to: 0.000000

Range Keithley B changed to 20 nA

Keithley B Bias (V) changed to: -30.000000

Range Keithley B changed to 200 pA

Range Keithley B changed to 20 nA

Range Keithley B changed to 200 pA

Range Keithley B changed to 20 nA

Range Keithley B changed to 200 pA

Range Keithley B changed to 20 nA

Range Keithley B changed to 200 pA

Keithley B Bias (V) changed to: 0.000000

Keithley B Bias (V) changed to: -30.000000

Range Keithley B changed to 20 nA

Range Keithley B changed to 200 pA

Range Keithley B changed to 20 nA

Range Keithley B changed to 200 pA

Instrument 2: AMMETER KEITHLEY 6517A A
Measure type: Current
range type: set range value
range value (ampere):  200 pA
Integration time:  set NPLC value
NPLC value: 10.000
Digital filter count: 2
Vsource: OFF
Output Voltage value: -0.000
Vsource range: 100 V
Trigger source: bus

Range Keithley A changed to 20 nA

Range Keithley A changed to 200 nA

Range Keithley A changed to 200 pA

Range Keithley A changed to 20 nA

Range Keithley A changed to 200 pA

Range Keithley A changed to 20 nA

Range Keithley A changed to 200 nA

Range Keithley A changed to 200 pA

Range Keithley A changed to 20 nA

Range Keithley A changed to 200 pA

Range Keithley A changed to 20 nA

Range Keithley A changed to 200 nA

Range Keithley A changed to 200 pA

Range Keithley A changed to 20 nA

Range Keithley A changed to 200 pA

Range Keithley A changed to 20 nA

Range Keithley A changed to 200 pA

Range Keithley A changed to 20 nA

Range Keithley A changed to 200 pA

Range Keithley A changed to 20 nA

Range Keithley A changed to 200 pA

Instrument 3: COUNTER ORTEC 996Integration time (sec): 1.000


Range Keithley C changed to 200 nA


Range Keithley C changed to 2 uA


Range Keithley C changed to 200 nA


Range Keithley C changed to 2 uA


Range Keithley C changed to 200 pA


________________________________________________________________________________

RelativeTime (msec)	Photon Energy	Var_1	Var_2	INSTR_1_Sample with Bias _(ampere ) 	INSTR_2_Monitor IM_(ampere)  	INSTR_3_Ortec 996 counts_(counts)	I_BPM_sum (Amps)	
________________________________________________________________________________

2.11358000E+5	3.99999907E+0	0.00000000E+0	0.00000000E+0	2.62400000E-13	6.42000000E-14	0.00000000E+0	8.95632404E-5
2.23423000E+5	4.09999411E+0	0.00000000E+0	0.00000000E+0	2.57000000E-13	6.04000000E-14	0.00000000E+0	8.92885166E-5
2.34474000E+5	4.19999220E+0	0.00000000E+0	0.00000000E+0	2.52000000E-13	5.56000000E-14	0.00000000E+0	8.96498578E-5
2.44991000E+5	4.29999548E+0	0.00000000E+0	0.00000000E+0	2.58500000E-13	5.75000000E-14	0.00000000E+0	8.93822329E-5
2.55252000E+5	4.39999935E+0	0.00000000E+0	0.00000000E+0	2.56600000E-13	5.81000000E-14	0.00000000E+0	8.94707697E-5
2.65409000E+5	4.49999833E+0	0.00000000E+0	0.00000000E+0	2.57900000E-13	5.83000000E-14	0.00000000E+0	8.96509277E-5
2.75576000E+5	4.60001162E+0	0.00000000E+0	0.00000000E+0	2.60900000E-13	6.07000000E-14	0.00000000E+0	8.96186220E-5
2.85805000E+5	4.69999142E+0	0.00000000E+0	0.00000000E+0	2.61900000E-13	5.98000000E-14	0.00000000E+0	8.90551614E-5
2.95750000E+5	4.79999687E+0	0.00000000E+0	0.00000000E+0	2.67500000E-13	6.02000000E-14	0.00000000E+0	8.92489152E-5
3.05754000E+5	4.90000508E+0	0.00000000E+0	0.00000000E+0	2.70900000E-13	6.37000000E-14	0.00000000E+0	8.92324167E-5
3.15416000E+5	5.00000644E+0	0.00000000E+0	0.00000000E+0	2.56900000E-13	6.37000000E-14	0.00000000E+0	8.93033224E-5
3.24912000E+5	5.09999700E+0	0.00000000E+0	0.00000000E+0	2.57300000E-13	6.25000000E-14	0.00000000E+0	8.92843889E-5
3.34261000E+5	5.20000199E+0	0.00000000E+0	0.00000000E+0	2.60600000E-13	6.25000000E-14	0.00000000E+0	8.88807462E-5
3.43606000E+5	5.30000595E+0	0.00000000E+0	0.00000000E+0	2.59500000E-13	6.38000000E-14	0.00000000E+0	8.93911587E-5
3.52831000E+5	5.39999029E+0	0.00000000E+0	0.00000000E+0	2.59900000E-13	6.69000000E-14	0.00000000E+0	8.90517877E-5
3.62252000E+5	5.50000295E+0	0.00000000E+0	0.00000000E+0	2.64500000E-13	6.83000000E-14	0.00000000E+0	8.94337314E-5
3.71485000E+5	5.59999511E+0	0.00000000E+0	0.00000000E+0	2.67300000E-13	6.68000000E-14	0.00000000E+0	8.91313421E-5
3.80501000E+5	5.70001373E+0	0.00000000E+0	0.00000000E+0	2.88100000E-13	7.37000000E-14	0.00000000E+0	8.90704947E-5
3.89544000E+5	5.80000087E+0	0.00000000E+0	0.00000000E+0	2.74100000E-13	7.40000000E-14	0.00000000E+0	8.91175764E-5
3.98644000E+5	5.90000087E+0	0.00000000E+0	0.00000000E+0	2.75700000E-13	7.44000000E-14	0.00000000E+0	8.97043693E-5
4.07629000E+5	5.99999822E+0	0.00000000E+0	0.00000000E+0	2.78400000E-13	8.06000000E-14	0.00000000E+0	8.95702499E-5
4.16146000E+5	6.10000594E+0	0.00000000E+0	0.00000000E+0	2.84600000E-13	8.54000000E-14	0.00000000E+0	8.96182853E-5
4.24510000E+5	6.20000673E+0	0.00000000E+0	0.00000000E+0	2.74200000E-13	8.57000000E-14	0.00000000E+0	8.95533788E-5
4.32846000E+5	6.29999544E+0	0.00000000E+0	0.00000000E+0	2.85600000E-13	9.14000000E-14	0.00000000E+0	8.92714666E-5
4.41328000E+5	6.40000387E+0	0.00000000E+0	0.00000000E+0	2.90100000E-13	9.92000000E-14	0.00000000E+0	8.94225466E-5
4.49526000E+5	6.49999876E+0	0.00000000E+0	0.00000000E+0	2.98500000E-13	1.06800000E-13	0.00000000E+0	8.94481706E-5
4.57926000E+5	6.59999500E+0	0.00000000E+0	0.00000000E+0	3.06000000E-13	1.15500000E-13	0.00000000E+0	8.91350644E-5
4.66193000E+5	6.69999304E+0	0.00000000E+0	0.00000000E+0	3.14300000E-13	1.26800000E-13	0.00000000E+0	8.95601707E-5
4.74592000E+5	6.79999847E+0	0.00000000E+0	0.00000000E+0	3.36400000E-13	1.41200000E-13	0.00000000E+0	8.92666416E-5
4.82915000E+5	6.89999098E+0	0.00000000E+0	0.00000000E+0	3.41100000E-13	1.55200000E-13	0.00000000E+0	8.93710392E-5
4.90986000E+5	7.00000399E+0	0.00000000E+0	0.00000000E+0	3.66100000E-13	1.78300000E-13	0.00000000E+0	8.95817297E-5
4.98976000E+5	7.10000843E+0	0.00000000E+0	0.00000000E+0	3.79900000E-13	2.03200000E-13	0.00000000E+0	8.91190486E-5
5.06694000E+5	7.20000041E+0	0.00000000E+0	0.00000000E+0	4.12300000E-13	2.30000000E-13	0.00000000E+0	8.94761937E-5
5.14595000E+5	7.30000015E+0	0.00000000E+0	0.00000000E+0	4.41400000E-13	2.50500000E-13	0.00000000E+0	8.92714726E-5
5.22575000E+5	7.40000122E+0	0.00000000E+0	0.00000000E+0	4.67700000E-13	2.65300000E-13	0.00000000E+0	8.92526942E-5
5.31210000E+5	7.50000292E+0	0.00000000E+0	0.00000000E+0	4.77100000E-13	2.63300000E-13	0.00000000E+0	8.93066364E-5
5.38863000E+5	7.59997773E+0	0.00000000E+0	0.00000000E+0	4.45000000E-13	2.27200000E-13	0.00000000E+0	8.91628014E-5
5.46665000E+5	7.69999804E+0	0.00000000E+0	0.00000000E+0	3.79700000E-13	1.60300000E-13	0.00000000E+0	8.96448451E-5
5.54506000E+5	7.80002553E+0	0.00000000E+0	0.00000000E+0	2.99800000E-13	9.33000000E-14	0.00000000E+0	8.93663781E-5
5.62255000E+5	7.89999252E+0	0.00000000E+0	0.00000000E+0	2.56700000E-13	6.48000000E-14	0.00000000E+0	8.92860340E-5
5.70041000E+5	7.99999711E+0	0.00000000E+0	0.00000000E+0	2.53800000E-13	5.90000000E-14	0.00000000E+0	8.92324971E-5
