G:\BEAR_storage\User_Experiments\20220317_arneodo\file(1)_Region 3__0036.txt
Ring Energy (GeV): 2
Lifetime (hours): 14.8142
Scan beginning: 3/18/2022	4:14:50 PM
Ring current (mA): 308.39
Source position: x (mm): 0.005 x' (mrad): -0.001 y (mm): 0.007 y' (mrad): 0.001
Scan end: 3/18/2022	4:31:44 PM
Ring current (mA): 309.08
Source position: x (mm): 0.004 x' (mrad): 0 y (mm): 0.007 y' (mrad): 0.001

SCAN TYPE: PHOTON ENERGY VS VAR_1 VS VAR_2

FILE INFO: FILE INFO:

SCAN PARAMETERS
waiting time (ms): 0
Number of scans: 1
Current scan number: 1
DARK OFF 
PREDARK OFF 

SCAN PARAMETERS
Regions configuration: 
number of regions: 6
Mirror grating scan: on
Timed acquisition: off
Region 1:
Initial energy (eV): 40.000000
Final energy (eV): 72.000000
Delta energy (eV): 1.000000
Deviation angle choice: Higher order rejection
Deviation angle (°): NaN
Al filter
G1200 channel
range keithley B 20 nA
range keithley C 200 nA
range keithley A 20 nA
Var_1: PsiC 0.000000
Var_2: PhiM0.000000
Bias CEM (V): 0.000000
Bias Keithley B (V): -30.000000
Name region: 
Region 2:
Initial energy (eV): 70.000000
Final energy (eV): 102.000000
Delta energy (eV): 1.000000
Deviation angle choice: Higher order rejection
Deviation angle (°): NaN
Si filter
G1200 channel
range keithley B 20 nA
range keithley C 200 nA
range keithley A 20 nA
Var_1: PsiC 0.000000
Var_2: PhiM0.000000
Bias CEM (V): 0.000000
Bias Keithley B (V): -30.000000
Name region: 
Region 3:
Initial energy (eV): 98.000000
Final energy (eV): 260.000000
Delta energy (eV): 1.000000
Deviation angle choice: Higher order rejection
Deviation angle (°): NaN
Full Beam
G1200 channel
range keithley B 20 nA
range keithley C 200 nA
range keithley A 200 nA
Var_1: PsiC 0.000000
Var_2: PhiM0.000000
Bias CEM (V): 0.000000
Bias Keithley B (V): -30.000000
Name region: 
Region 4:
Initial energy (eV): 255.000000
Final energy (eV): 320.000000
Delta energy (eV): 1.000000
Deviation angle choice: Higher order rejection
Deviation angle (°): NaN
filter Ag 0.6 um
G1200 channel
range keithley B 200 pA
range keithley C 200 nA
range keithley A 200 pA
Var_1: PsiC 0.000000
Var_2: PhiM0.000000
Bias CEM (V): 0.000000
Bias Keithley B (V): -30.000000
Name region: 
Region 5:
Initial energy (eV): 315.000000
Final energy (eV): 1200.000000
Delta energy (eV): 5.000000
Deviation angle choice: Higher order rejection
Deviation angle (°): NaN
Full Beam
G1200 channel
range keithley B 20 nA
range keithley C 200 nA
range keithley A 20 nA
Var_1: PsiC 0.000000
Var_2: PhiM0.000000
Bias CEM (V): 0.000000
Bias Keithley B (V): -30.000000
Name region: 
Region 6:
Initial energy (eV): 1190.000000
Final energy (eV): 1500.000000
Delta energy (eV): 5.000000
Deviation angle choice: Higher order rejection
Deviation angle (°): NaN
filter Ag 0.6 um
G1200 channel
range keithley B 200 pA
range keithley C 200 nA
range keithley A 200 pA
Var_1: PsiC 0.000000
Var_2: PhiM0.000000
Bias CEM (V): 0.000000
Bias Keithley B (V): -30.000000
Name region: 

BEAR MONOCHROMATOR CONFIGURATION: 
Current Grating Position:     -200137.40
Current Mirror Position: 2559.2
Current Grating: G1200
P2 phiz position:  0.0000
Mono axis position: 25.0000
Current Photon Energy (eV): 55.806
Current Deviation Angle: 155.000
Vertical Exit Slits (um): 100.000
Exit slit y axis position: 1.3625
Horizontal Exit Slits (um):  889.156
Exit slit z axis position: 1.9229
Mitutoyo position (mm): 

Dose on sample (mJ/cm^2): NaN

ENERGY CALIBRATION:
offset grating G1200: yes
Delta 0 order G1200:  -800.0
offset grating G1800: not
Delta 0 order G1800:  0.0
offset grating GNIM: not
Delta 0 order GNIM:  0.0
ZERO ORDER POSITIONS:
Grating G1200: Mirror position:  4938.0
Grating position: -105355.0
Grating G1800: 
Mirror position:  4938.0
Grating position: -106345.0
Grating GNIM: 
Mirror position:  10000.0
Grating position: 227300.0

Initial filter: Full Beam

EXPERIMENTAL CHAMBER CONFIGURATION: 
PsiC (deg):   -0.000186
Phi Analyzer (degrees): 89.993255
Theta Manipulator (degrees): -44.000040
Theta Analyzer (degrees): -135.001468
PhiM (degrees): -0.005129
XM (mm): 0.000763
YM (mm): 19.932987
ZM (mm): (Warning: for kinetic energy scans, 
this parameter is given in the scan settings) 
-6.601425
TiltM (°): 0.000138

ELECTRON ANALYZER CONFIGURATION: 
Current Kinetik energy (eV): 35.0
Mode: DE = COST
Pass Energy (eV):  50.000
CEM: ON
Bias Front-Back CEM (V): 3499.561
Bias Back-Collector CEM (V): 100.874
Bias Retard-Front CEM: 100.087COIL VALUES
Ix (amps):2.820
Iy (amps): 6.789
Iz (amps): 37.337

POLARIZATION SELECTOR CONFIGURATION:
Psi1 (rad): -0.001665535
Psi2 (rad): 0.001417093
Z min position (mm): 46.599650
DZ position (mm): 18.599100
Zmin 0 (mm): 66.500000
DZ0 (mm): 53.000000

BEAM SELECTOR CONFIGURATION:
Zmin position (mm): NaN
DZ position (mm): NaN
Y+ position (mm): NaN
Y- position (mm): NaN

CHANNEL ELECTRON MULTIPLIER CONFIGURATION:
CEM configured: OFF
Bias CEM: 0.000000

FLUORESCENCE DETECTOR CONFIGURATION:
Not configured

LUMINESCENCE MONOCHROMATOR CONFIGURATION:
Optical fiber position (mm): 0.000000
Optical fiber Switch inside: OFF
Optical fiber Switch outside: ON
Monochromator wavelength (A): 0.000000
Limit Switches: ON

I0 MONITOR PARAMETERS:
I0 detector position(mm): -1.924999E+2
Lower switch: OFF
Upper switch: OFF
Valve status:open

PRESSURE PARAMETERS:
Monitor chamber pressure (mbar): 9.263e-10
Experimental chamber pressure -ION GAUGE-(mbar): 0.000000E+0

XMCD PARAMETERS:
Xmcd OFF
Xmcd Direction -
Xmcd current (A): 0.000000

Gated scan off

Instrument 1: AMMETER KEITHLEY 6517A B
Measure type: Current
range type: set range value
range value (ampere):  200 pA
Integration time:  set NPLC value
NPLC value: 10.000
Digital filter count: 2
SAMPLE BIAS (V): -30.000
Vsource: ON
Output Voltage value: 30.000
Vsource range: 1000 V

Range Keithley B changed to 20 nA

Range Keithley B changed to 200 pA

Range Keithley B changed to 20 nA

Range Keithley B changed to 200 pA

Range Keithley B changed to 20 nA

Range Keithley B changed to 200 pA

Range Keithley B changed to 20 nA

Range Keithley B changed to 200 nA

Range Keithley B changed to 200 pA

Range Keithley B changed to 20 nA

Range Keithley B changed to 200 pA

Range Keithley B changed to 20 nA

Range Keithley B changed to 200 pA

Range Keithley B changed to 20 nA

Range Keithley B changed to 200 pA

Instrument 2: AMMETER KEITHLEY 6517A A
Measure type: Current
range type: set range value
range value (ampere):  200 nA
Integration time:  set NPLC value
NPLC value: 10.000
Digital filter count: 2
Vsource: OFF
Output Voltage value: -0.000
Vsource range: 100 V
Trigger source: bus

Range Keithley A changed to 20 nA

Range Keithley A changed to 200 nA

Range Keithley A changed to 200 pA

Range Keithley A changed to 20 nA

Range Keithley A changed to 200 pA

Range Keithley A changed to 20 nA

Range Keithley A changed to 200 nA

Range Keithley A changed to 200 pA

Range Keithley A changed to 20 nA

Range Keithley A changed to 200 pA

Range Keithley A changed to 20 nA

Range Keithley A changed to 200 nA

Range Keithley A changed to 200 pA

Range Keithley A changed to 20 nA

Range Keithley A changed to 200 pA

Range Keithley A changed to 20 nA

Range Keithley A changed to 200 pA

Range Keithley A changed to 20 nA

Range Keithley A changed to 200 pA

Range Keithley A changed to 20 nA

Range Keithley A changed to 200 pA

Range Keithley A changed to 20 nA

Range Keithley A changed to 200 nA

Range Keithley A changed to 200 pA

Range Keithley A changed to 20 nA

Range Keithley A changed to 200 pA

Range Keithley A changed to 20 nA

Range Keithley A changed to 200 nA

Range Keithley A changed to 200 pA

Range Keithley A changed to 20 nA

Range Keithley A changed to 200 nA

Range Keithley A changed to 200 pA

Range Keithley A changed to 20 nA

Range Keithley A changed to 200 pA

Range Keithley A changed to 20 nA

Range Keithley A changed to 200 pA

Range Keithley A changed to 20 nA

Range Keithley A changed to 200 nA

Range Keithley A changed to 200 pA

Instrument 3: COUNTER ORTEC 996Integration time (sec): 1.000


Range Keithley C changed to 200 nA


________________________________________________________________________________

RelativeTime (msec)	Photon Energy	Var_1	Var_2	INSTR_1_Sample with Bias _(ampere ) 	INSTR_2_Monitor IM_(ampere)  	INSTR_3_Ortec 996 counts_(counts)	I_BPM_sum (Amps)	
________________________________________________________________________________

3.16995000E+5	9.80012384E+1	0.00000000E+0	0.00000000E+0	3.34673000E-9	4.61170000E-9	1.85403000E+5	8.97778618E-5
3.21810000E+5	9.89988265E+1	0.00000000E+0	0.00000000E+0	3.40300000E-9	4.79480000E-9	1.85606000E+5	8.97211092E-5
3.25862000E+5	1.00000181E+2	0.00000000E+0	0.00000000E+0	3.43829000E-9	4.96180000E-9	1.85264000E+5	8.92740565E-5
3.29867000E+5	1.01000083E+2	0.00000000E+0	0.00000000E+0	3.45853000E-9	5.10920000E-9	1.86098000E+5	8.94470202E-5
3.33883000E+5	1.02000498E+2	0.00000000E+0	0.00000000E+0	3.49066000E-9	5.27090000E-9	1.86408000E+5	8.98328560E-5
3.37901000E+5	1.03000229E+2	0.00000000E+0	0.00000000E+0	3.54294000E-9	5.47250000E-9	1.85904000E+5	8.96416503E-5
3.41932000E+5	1.03999714E+2	0.00000000E+0	0.00000000E+0	3.60381000E-9	5.68760000E-9	1.87053000E+5	8.89713304E-5
3.45959000E+5	1.05000098E+2	0.00000000E+0	0.00000000E+0	3.67093000E-9	5.90370000E-9	1.86365000E+5	8.94228714E-5
3.49979000E+5	1.06000649E+2	0.00000000E+0	0.00000000E+0	3.72070000E-9	6.14390000E-9	1.87696000E+5	8.96619963E-5
3.54020000E+5	1.06999691E+2	0.00000000E+0	0.00000000E+0	3.78751000E-9	6.41080000E-9	1.87603000E+5	8.95405608E-5
3.58052000E+5	1.08000274E+2	0.00000000E+0	0.00000000E+0	3.85003000E-9	6.71340000E-9	1.88107000E+5	8.95198810E-5
3.61948000E+5	1.08998907E+2	0.00000000E+0	0.00000000E+0	3.90555000E-9	6.95230000E-9	1.88146000E+5	8.96963077E-5
3.65850000E+5	1.10000440E+2	0.00000000E+0	0.00000000E+0	3.94823000E-9	7.23770000E-9	1.88856000E+5	8.93490898E-5
3.69788000E+5	1.11000394E+2	0.00000000E+0	0.00000000E+0	4.01920000E-9	7.47490000E-9	1.88058000E+5	8.95558136E-5
3.73695000E+5	1.11999659E+2	0.00000000E+0	0.00000000E+0	4.06211000E-9	7.69260000E-9	1.88378000E+5	8.97648173E-5
3.77581000E+5	1.13000469E+2	0.00000000E+0	0.00000000E+0	4.08828000E-9	7.91930000E-9	1.89240000E+5	8.94302475E-5
3.81488000E+5	1.13999860E+2	0.00000000E+0	0.00000000E+0	4.10597000E-9	8.13790000E-9	1.89277000E+5	8.95344185E-5
3.85379000E+5	1.15000145E+2	0.00000000E+0	0.00000000E+0	4.11710000E-9	8.34100000E-9	1.89350000E+5	8.93897908E-5
3.89243000E+5	1.16000105E+2	0.00000000E+0	0.00000000E+0	4.12027000E-9	8.53280000E-9	1.88629000E+5	8.93309461E-5
3.93111000E+5	1.17000342E+2	0.00000000E+0	0.00000000E+0	4.10883000E-9	8.71280000E-9	1.88694000E+5	8.94312846E-5
3.96996000E+5	1.17999592E+2	0.00000000E+0	0.00000000E+0	4.08612000E-9	8.85990000E-9	1.88049000E+5	8.93031465E-5
4.00861000E+5	1.19000149E+2	0.00000000E+0	0.00000000E+0	4.05413000E-9	8.96030000E-9	1.87239000E+5	8.90117960E-5
4.04730000E+5	1.20000224E+2	0.00000000E+0	0.00000000E+0	4.00662000E-9	9.01870000E-9	1.86300000E+5	8.94956993E-5
4.08669000E+5	1.21000226E+2	0.00000000E+0	0.00000000E+0	3.94594000E-9	9.05060000E-9	1.86604000E+5	8.94456076E-5
4.12479000E+5	1.22000022E+2	0.00000000E+0	0.00000000E+0	3.87757000E-9	9.06780000E-9	1.85652000E+5	8.90703337E-5
4.16329000E+5	1.23000674E+2	0.00000000E+0	0.00000000E+0	3.80043000E-9	9.06920000E-9	1.84712000E+5	8.93810409E-5
4.20207000E+5	1.23999695E+2	0.00000000E+0	0.00000000E+0	3.71511000E-9	9.05000000E-9	1.83622000E+5	8.95323204E-5
4.24103000E+5	1.25000912E+2	0.00000000E+0	0.00000000E+0	3.62276000E-9	9.01280000E-9	1.82543000E+5	8.90705900E-5
4.27990000E+5	1.25999640E+2	0.00000000E+0	0.00000000E+0	3.52404000E-9	8.96050000E-9	1.81927000E+5	8.93917250E-5
4.31871000E+5	1.26999867E+2	0.00000000E+0	0.00000000E+0	3.42097000E-9	8.88910000E-9	1.80518000E+5	8.88991969E-5
4.35752000E+5	1.27999939E+2	0.00000000E+0	0.00000000E+0	3.31391000E-9	8.79540000E-9	1.79085000E+5	8.94502210E-5
4.39606000E+5	1.29000145E+2	0.00000000E+0	0.00000000E+0	3.20418000E-9	8.68070000E-9	1.77705000E+5	8.92380225E-5
4.43363000E+5	1.29999119E+2	0.00000000E+0	0.00000000E+0	3.09240000E-9	8.54870000E-9	1.76057000E+5	8.93110561E-5
4.47176000E+5	1.31000158E+2	0.00000000E+0	0.00000000E+0	2.98510000E-9	8.41640000E-9	1.74632000E+5	8.95638215E-5
4.50961000E+5	1.32001624E+2	0.00000000E+0	0.00000000E+0	2.87432000E-9	8.26230000E-9	1.73591000E+5	8.95459043E-5
4.55573000E+5	1.32999695E+2	0.00000000E+0	0.00000000E+0	2.75517000E-9	8.06950000E-9	1.71799000E+5	8.96385747E-5
4.59338000E+5	1.33999527E+2	0.00000000E+0	0.00000000E+0	2.63509000E-9	7.85320000E-9	1.70307000E+5	8.98296970E-5
4.63103000E+5	1.35001216E+2	0.00000000E+0	0.00000000E+0	2.51292000E-9	7.61820000E-9	1.67707000E+5	8.97631544E-5
4.66849000E+5	1.36000845E+2	0.00000000E+0	0.00000000E+0	2.39054000E-9	7.37140000E-9	1.65362000E+5	8.98389327E-5
4.70622000E+5	1.36999885E+2	0.00000000E+0	0.00000000E+0	2.26890000E-9	7.11570000E-9	1.63545000E+5	8.96158981E-5
4.74404000E+5	1.38000559E+2	0.00000000E+0	0.00000000E+0	2.15011000E-9	6.85160000E-9	1.61018000E+5	9.00105315E-5
4.78179000E+5	1.39000347E+2	0.00000000E+0	0.00000000E+0	2.03059000E-9	6.57980000E-9	1.59042000E+5	8.97245991E-5
4.81949000E+5	1.40000049E+2	0.00000000E+0	0.00000000E+0	1.91208000E-9	6.29430000E-9	1.56287000E+5	8.96935659E-5
4.85710000E+5	1.41000116E+2	0.00000000E+0	0.00000000E+0	1.78989000E-9	5.99060000E-9	1.53441000E+5	8.98153382E-5
4.89436000E+5	1.42000283E+2	0.00000000E+0	0.00000000E+0	1.66533000E-9	5.66810000E-9	1.50130000E+5	8.97904443E-5
4.93185000E+5	1.43000635E+2	0.00000000E+0	0.00000000E+0	1.54375000E-9	5.32670000E-9	1.45807000E+5	8.94434916E-5
4.96936000E+5	1.43999666E+2	0.00000000E+0	0.00000000E+0	1.41956000E-9	4.97410000E-9	1.40995000E+5	8.95883935E-5
5.00671000E+5	1.45000310E+2	0.00000000E+0	0.00000000E+0	1.29630000E-9	4.61430000E-9	1.36497000E+5	8.95708191E-5
5.04443000E+5	1.46000675E+2	0.00000000E+0	0.00000000E+0	1.17593000E-9	4.25200000E-9	1.31847000E+5	8.98235279E-5
5.08182000E+5	1.46999182E+2	0.00000000E+0	0.00000000E+0	1.06173000E-9	3.89970000E-9	1.26961000E+5	8.93766391E-5
5.11946000E+5	1.47999355E+2	0.00000000E+0	0.00000000E+0	9.54350000E-10	3.56020000E-9	1.23142000E+5	8.97417324E-5
5.15682000E+5	1.49000106E+2	0.00000000E+0	0.00000000E+0	8.55460000E-10	3.24190000E-9	1.20085000E+5	8.97420901E-5
5.19429000E+5	1.49998520E+2	0.00000000E+0	0.00000000E+0	7.67070000E-10	2.94840000E-9	1.17644000E+5	8.95987588E-5
5.23877000E+5	1.50978665E+2	0.00000000E+0	0.00000000E+0	6.85490000E-10	2.68280000E-9	1.14538000E+5	8.95014214E-5
5.28278000E+5	1.52018377E+2	0.00000000E+0	0.00000000E+0	6.28500000E-10	2.49400000E-9	1.10981000E+5	8.96425116E-5
5.32692000E+5	1.53002962E+2	0.00000000E+0	0.00000000E+0	5.70800000E-10	2.30030000E-9	1.06646000E+5	8.96956551E-5
5.37102000E+5	1.54001365E+2	0.00000000E+0	0.00000000E+0	5.16870000E-10	2.11650000E-9	1.01439000E+5	8.98502844E-5
5.41512000E+5	1.55001351E+2	0.00000000E+0	0.00000000E+0	4.67440000E-10	1.94740000E-9	9.58590000E+4	8.90881406E-5
5.45986000E+5	1.55997927E+2	0.00000000E+0	0.00000000E+0	4.27220000E-10	1.80870000E-9	9.13230000E+4	8.94761609E-5
5.50384000E+5	1.56996954E+2	0.00000000E+0	0.00000000E+0	3.91270000E-10	1.68300000E-9	8.63720000E+4	8.94986736E-5
5.54791000E+5	1.57999481E+2	0.00000000E+0	0.00000000E+0	3.60860000E-10	1.57400000E-9	8.17420000E+4	8.93191176E-5
5.59196000E+5	1.58999521E+2	0.00000000E+0	0.00000000E+0	3.33070000E-10	1.47440000E-9	7.73910000E+4	8.95972180E-5
5.63588000E+5	1.59992621E+2	0.00000000E+0	0.00000000E+0	3.09180000E-10	1.38690000E-9	7.38060000E+4	8.95754981E-5
5.68012000E+5	1.60996430E+2	0.00000000E+0	0.00000000E+0	2.90180000E-10	1.31850000E-9	7.03830000E+4	8.96077561E-5
5.72445000E+5	1.62002784E+2	0.00000000E+0	0.00000000E+0	2.71990000E-10	1.25180000E-9	6.70950000E+4	8.94955861E-5
5.76883000E+5	1.63003941E+2	0.00000000E+0	0.00000000E+0	2.51590000E-10	1.17510000E-9	6.32100000E+4	8.95837742E-5
5.81365000E+5	1.64005901E+2	0.00000000E+0	0.00000000E+0	2.31030000E-10	1.09230000E-9	5.94500000E+4	8.94588368E-5
5.85796000E+5	1.65001438E+2	0.00000000E+0	0.00000000E+0	2.09810000E-10	1.00400000E-9	5.49420000E+4	8.96964597E-5
5.90262000E+5	1.66003181E+2	0.00000000E+0	0.00000000E+0	1.88800000E-10	9.14100000E-10	5.04470000E+4	8.97605884E-5
5.94654000E+5	1.66997677E+2	0.00000000E+0	0.00000000E+0	1.70330000E-10	8.38400000E-10	4.59700000E+4	8.92390685E-5
5.99114000E+5	1.67999477E+2	0.00000000E+0	0.00000000E+0	1.55140000E-10	7.74200000E-10	4.28720000E+4	8.92913716E-5
6.03552000E+5	1.68996503E+2	0.00000000E+0	0.00000000E+0	1.42020000E-10	7.19400000E-10	3.96460000E+4	8.91905533E-5
6.07988000E+5	1.69997565E+2	0.00000000E+0	0.00000000E+0	1.31050000E-10	6.71300000E-10	3.70490000E+4	8.95862597E-5
6.12482000E+5	1.70994031E+2	0.00000000E+0	0.00000000E+0	1.22210000E-10	6.34500000E-10	3.48770000E+4	8.95476925E-5
6.16953000E+5	1.71995238E+2	0.00000000E+0	0.00000000E+0	1.16310000E-10	6.08400000E-10	3.31180000E+4	8.93617200E-5
6.21369000E+5	1.73006779E+2	0.00000000E+0	0.00000000E+0	1.09390000E-10	5.79300000E-10	3.13710000E+4	8.96465438E-5
6.25799000E+5	1.74005015E+2	0.00000000E+0	0.00000000E+0	1.01990000E-10	5.46700000E-10	2.95350000E+4	8.93044995E-5
6.30240000E+5	1.75001719E+2	0.00000000E+0	0.00000000E+0	9.43800000E-11	5.14000000E-10	2.74280000E+4	8.93617647E-5
6.34678000E+5	1.76003338E+2	0.00000000E+0	0.00000000E+0	8.70500000E-11	4.80500000E-10	2.54390000E+4	8.92404216E-5
6.39116000E+5	1.76999058E+2	0.00000000E+0	0.00000000E+0	8.02200000E-11	4.50300000E-10	2.34300000E+4	8.95548242E-5
6.43531000E+5	1.77997705E+2	0.00000000E+0	0.00000000E+0	7.47900000E-11	4.25500000E-10	2.17540000E+4	8.95358312E-5
6.47984000E+5	1.78999788E+2	0.00000000E+0	0.00000000E+0	7.05500000E-11	4.06700000E-10	2.09690000E+4	8.95753073E-5
6.52411000E+5	1.79996401E+2	0.00000000E+0	0.00000000E+0	6.71300000E-11	3.92800000E-10	1.98970000E+4	8.93695491E-5
6.56907000E+5	1.80995148E+2	0.00000000E+0	0.00000000E+0	6.45800000E-11	3.82000000E-10	1.91540000E+4	8.91250121E-5
6.61322000E+5	1.81993088E+2	0.00000000E+0	0.00000000E+0	6.31800000E-11	3.75700000E-10	1.88180000E+4	8.91897516E-5
6.66470000E+5	1.83001105E+2	0.00000000E+0	0.00000000E+0	6.17100000E-11	3.70400000E-10	1.85240000E+4	8.93870341E-5
6.70892000E+5	1.84008741E+2	0.00000000E+0	0.00000000E+0	5.93100000E-11	3.62500000E-10	1.79520000E+4	8.94209492E-5
6.75308000E+5	1.85004108E+2	0.00000000E+0	0.00000000E+0	5.75100000E-11	3.53700000E-10	1.72550000E+4	8.95852106E-5
6.79739000E+5	1.86002562E+2	0.00000000E+0	0.00000000E+0	5.51500000E-11	3.44800000E-10	1.67740000E+4	8.93137591E-5
6.84162000E+5	1.87003020E+2	0.00000000E+0	0.00000000E+0	5.31000000E-11	3.36600000E-10	1.59350000E+4	8.90738623E-5
6.88619000E+5	1.87999663E+2	0.00000000E+0	0.00000000E+0	5.17400000E-11	3.30800000E-10	1.56770000E+4	8.96573740E-5
6.93039000E+5	1.88992671E+2	0.00000000E+0	0.00000000E+0	5.06200000E-11	3.27300000E-10	1.53950000E+4	8.95588594E-5
6.97465000E+5	1.89999048E+2	0.00000000E+0	0.00000000E+0	4.96500000E-11	3.24600000E-10	1.49750000E+4	8.96046865E-5
7.01891000E+5	1.91000066E+2	0.00000000E+0	0.00000000E+0	4.90500000E-11	3.23200000E-10	1.46780000E+4	8.97737968E-5
7.06338000E+5	1.91993046E+2	0.00000000E+0	0.00000000E+0	4.84200000E-11	3.23100000E-10	1.47230000E+4	8.98015636E-5
7.10756000E+5	1.92996848E+2	0.00000000E+0	0.00000000E+0	4.85300000E-11	3.24500000E-10	1.47220000E+4	8.94827413E-5
7.15177000E+5	1.94006841E+2	0.00000000E+0	0.00000000E+0	4.78700000E-11	3.24800000E-10	1.49070000E+4	8.94336241E-5
7.19619000E+5	1.95002453E+2	0.00000000E+0	0.00000000E+0	4.70500000E-11	3.24000000E-10	1.42210000E+4	9.00009084E-5
7.24046000E+5	1.96002382E+2	0.00000000E+0	0.00000000E+0	4.64800000E-11	3.22500000E-10	1.43400000E+4	8.99935144E-5
7.28442000E+5	1.97005179E+2	0.00000000E+0	0.00000000E+0	4.51100000E-11	3.20200000E-10	1.37300000E+4	8.99329859E-5
7.32867000E+5	1.97997252E+2	0.00000000E+0	0.00000000E+0	4.51400000E-11	3.17900000E-10	1.34080000E+4	8.94805896E-5
7.37309000E+5	1.98995952E+2	0.00000000E+0	0.00000000E+0	4.42600000E-11	3.16200000E-10	1.33510000E+4	8.96198856E-5
7.41742000E+5	2.00000971E+2	0.00000000E+0	0.00000000E+0	4.34400000E-11	3.15000000E-10	1.33530000E+4	8.97620725E-5
7.46168000E+5	2.00996030E+2	0.00000000E+0	0.00000000E+0	4.29000000E-11	3.14500000E-10	1.31060000E+4	8.97811877E-5
7.50628000E+5	2.01996346E+2	0.00000000E+0	0.00000000E+0	4.27300000E-11	3.14700000E-10	1.32640000E+4	8.98399132E-5
7.55068000E+5	2.02994623E+2	0.00000000E+0	0.00000000E+0	4.28000000E-11	3.17000000E-10	1.29430000E+4	8.95822542E-5
7.59508000E+5	2.04003689E+2	0.00000000E+0	0.00000000E+0	4.30000000E-11	3.19100000E-10	1.29970000E+4	8.94307988E-5
7.63951000E+5	2.05005667E+2	0.00000000E+0	0.00000000E+0	4.27900000E-11	3.20400000E-10	1.30320000E+4	8.93951314E-5
7.68410000E+5	2.06009443E+2	0.00000000E+0	0.00000000E+0	4.20100000E-11	3.21000000E-10	1.28460000E+4	8.95569372E-5
7.72849000E+5	2.06998407E+2	0.00000000E+0	0.00000000E+0	4.20900000E-11	3.21700000E-10	1.27650000E+4	8.96566259E-5
7.77283000E+5	2.08004895E+2	0.00000000E+0	0.00000000E+0	4.15100000E-11	3.22400000E-10	1.27280000E+4	8.95350384E-5
7.81706000E+5	2.08995509E+2	0.00000000E+0	0.00000000E+0	4.12800000E-11	3.23600000E-10	1.26030000E+4	8.93920349E-5
7.86147000E+5	2.10000034E+2	0.00000000E+0	0.00000000E+0	4.09700000E-11	3.25200000E-10	1.25710000E+4	8.91927438E-5
7.90596000E+5	2.10995703E+2	0.00000000E+0	0.00000000E+0	4.10500000E-11	3.26800000E-10	1.27670000E+4	8.96738636E-5
7.95044000E+5	2.11999146E+2	0.00000000E+0	0.00000000E+0	4.08800000E-11	3.28900000E-10	1.25420000E+4	8.96603423E-5
7.99462000E+5	2.12995024E+2	0.00000000E+0	0.00000000E+0	4.05900000E-11	3.31300000E-10	1.23260000E+4	8.95985531E-5
8.03881000E+5	2.13993583E+2	0.00000000E+0	0.00000000E+0	4.10400000E-11	3.34500000E-10	1.27220000E+4	8.96214741E-5
8.08333000E+5	2.15010483E+2	0.00000000E+0	0.00000000E+0	4.08800000E-11	3.36100000E-10	1.25940000E+4	8.95097005E-5
8.12745000E+5	2.16007023E+2	0.00000000E+0	0.00000000E+0	4.04300000E-11	3.35900000E-10	1.27130000E+4	8.95560103E-5
8.17228000E+5	2.17001421E+2	0.00000000E+0	0.00000000E+0	3.97200000E-11	3.33800000E-10	1.22850000E+4	8.92051475E-5
8.21718000E+5	2.18001851E+2	0.00000000E+0	0.00000000E+0	3.88100000E-11	3.30600000E-10	1.20500000E+4	8.93121617E-5
8.26141000E+5	2.18995973E+2	0.00000000E+0	0.00000000E+0	3.81600000E-11	3.27300000E-10	1.19760000E+4	8.96509128E-5
8.30551000E+5	2.19999492E+2	0.00000000E+0	0.00000000E+0	3.73500000E-11	3.24500000E-10	1.15370000E+4	8.91789692E-5
8.34983000E+5	2.20997281E+2	0.00000000E+0	0.00000000E+0	3.69400000E-11	3.22200000E-10	1.17340000E+4	8.96561253E-5
8.39393000E+5	2.21995438E+2	0.00000000E+0	0.00000000E+0	3.65400000E-11	3.20500000E-10	1.12150000E+4	8.94364821E-5
8.43828000E+5	2.22995670E+2	0.00000000E+0	0.00000000E+0	3.59500000E-11	3.20000000E-10	1.10810000E+4	8.93844055E-5
8.48293000E+5	2.23989974E+2	0.00000000E+0	0.00000000E+0	3.64000000E-11	3.21600000E-10	1.12250000E+4	8.93855291E-5
8.52751000E+5	2.25009471E+2	0.00000000E+0	0.00000000E+0	3.62900000E-11	3.22600000E-10	1.10320000E+4	8.90916931E-5
8.57184000E+5	2.26005212E+2	0.00000000E+0	0.00000000E+0	3.54400000E-11	3.22300000E-10	1.11720000E+4	8.94448834E-5
8.61601000E+5	2.27003955E+2	0.00000000E+0	0.00000000E+0	3.48100000E-11	3.21100000E-10	1.09160000E+4	8.93229978E-5
8.66098000E+5	2.28007504E+2	0.00000000E+0	0.00000000E+0	3.47100000E-11	3.19600000E-10	1.07300000E+4	8.95385312E-5
8.70545000E+5	2.28998260E+2	0.00000000E+0	0.00000000E+0	3.38200000E-11	3.19000000E-10	1.04680000E+4	8.97327143E-5
8.74964000E+5	2.29994624E+2	0.00000000E+0	0.00000000E+0	3.38500000E-11	3.19300000E-10	1.04530000E+4	8.91818212E-5
8.79388000E+5	2.30997248E+2	0.00000000E+0	0.00000000E+0	3.37300000E-11	3.20500000E-10	1.06460000E+4	8.96161276E-5
8.83815000E+5	2.32002918E+2	0.00000000E+0	0.00000000E+0	3.32900000E-11	3.22600000E-10	1.04490000E+4	8.94010412E-5
8.89043000E+5	2.32992418E+2	0.00000000E+0	0.00000000E+0	3.35500000E-11	3.26100000E-10	1.04860000E+4	8.96163749E-5
8.93481000E+5	2.33993819E+2	0.00000000E+0	0.00000000E+0	3.39700000E-11	3.31700000E-10	1.05230000E+4	8.96482336E-5
8.97898000E+5	2.35002678E+2	0.00000000E+0	0.00000000E+0	3.42500000E-11	3.37300000E-10	1.07910000E+4	8.90542077E-5
9.02372000E+5	2.36006820E+2	0.00000000E+0	0.00000000E+0	3.45200000E-11	3.41900000E-10	1.06120000E+4	8.92122405E-5
9.06814000E+5	2.37005101E+2	0.00000000E+0	0.00000000E+0	3.47200000E-11	3.46100000E-10	1.07280000E+4	8.91191052E-5
9.11251000E+5	2.38011127E+2	0.00000000E+0	0.00000000E+0	3.43000000E-11	3.49800000E-10	1.05870000E+4	8.90790032E-5
9.15688000E+5	2.38995503E+2	0.00000000E+0	0.00000000E+0	3.43200000E-11	3.54000000E-10	1.08640000E+4	8.91410576E-5
9.20103000E+5	2.39998600E+2	0.00000000E+0	0.00000000E+0	3.42900000E-11	3.58700000E-10	1.06650000E+4	8.89957474E-5
9.24526000E+5	2.40999916E+2	0.00000000E+0	0.00000000E+0	3.44700000E-11	3.64200000E-10	1.08170000E+4	8.94986438E-5
9.28949000E+5	2.41991156E+2	0.00000000E+0	0.00000000E+0	3.49300000E-11	3.70400000E-10	1.08470000E+4	8.91241359E-5
9.33415000E+5	2.42999585E+2	0.00000000E+0	0.00000000E+0	3.54700000E-11	3.77700000E-10	1.09600000E+4	8.95719456E-5
9.37867000E+5	2.43993719E+2	0.00000000E+0	0.00000000E+0	3.57500000E-11	3.85700000E-10	1.10600000E+4	8.97293406E-5
9.42355000E+5	2.44999117E+2	0.00000000E+0	0.00000000E+0	3.61100000E-11	3.93700000E-10	1.12880000E+4	8.95650672E-5
9.46811000E+5	2.46005769E+2	0.00000000E+0	0.00000000E+0	3.62600000E-11	4.01100000E-10	1.14380000E+4	8.94452619E-5
9.51245000E+5	2.47004764E+2	0.00000000E+0	0.00000000E+0	3.65500000E-11	4.08100000E-10	1.16070000E+4	8.94663560E-5
9.55673000E+5	2.48003168E+2	0.00000000E+0	0.00000000E+0	3.68100000E-11	4.14500000E-10	1.13970000E+4	8.95699101E-5
9.60102000E+5	2.49000327E+2	0.00000000E+0	0.00000000E+0	3.66700000E-11	4.20400000E-10	1.14980000E+4	8.99560857E-5
9.64561000E+5	2.50000746E+2	0.00000000E+0	0.00000000E+0	3.68600000E-11	4.26200000E-10	1.14280000E+4	8.98466098E-5
9.68417000E+5	2.50996993E+2	0.00000000E+0	0.00000000E+0	3.59900000E-11	4.25500000E-10	1.15590000E+4	8.99744469E-5
9.72256000E+5	2.51996546E+2	0.00000000E+0	0.00000000E+0	3.60000000E-11	4.24300000E-10	1.12740000E+4	8.94601869E-5
9.76099000E+5	2.53001911E+2	0.00000000E+0	0.00000000E+0	3.54500000E-11	4.23100000E-10	1.10420000E+4	8.96465319E-5
9.79948000E+5	2.54003426E+2	0.00000000E+0	0.00000000E+0	3.52100000E-11	4.21900000E-10	1.10970000E+4	8.95937579E-5
9.83941000E+5	2.55000493E+2	0.00000000E+0	0.00000000E+0	3.43200000E-11	4.20400000E-10	1.08410000E+4	8.93176513E-5
9.87812000E+5	2.55996863E+2	0.00000000E+0	0.00000000E+0	3.37400000E-11	4.18900000E-10	1.05790000E+4	8.98636120E-5
9.91638000E+5	2.57001579E+2	0.00000000E+0	0.00000000E+0	3.35700000E-11	4.17200000E-10	1.04510000E+4	8.93441575E-5
9.95511000E+5	2.57999546E+2	0.00000000E+0	0.00000000E+0	3.29400000E-11	4.15500000E-10	1.03510000E+4	8.97688168E-5
9.99425000E+5	2.59001053E+2	0.00000000E+0	0.00000000E+0	3.27300000E-11	4.13800000E-10	1.01440000E+4	8.98270476E-5
1.00327800E+6	2.59999788E+2	0.00000000E+0	0.00000000E+0	3.18600000E-11	4.12300000E-10	9.85100000E+3	8.95692813E-5
