G:\BEAR_storage\User_Experiments\20220317_arneodo\file(1)0071.txt
Ring Energy (GeV): 2
Lifetime (hours): 0
Scan beginning: 3/21/2022	12:01:50 PM
Ring current (mA): 309.32
Source position: x (mm): 0.006 x' (mrad): 0 y (mm): -0 y' (mrad): 0.002
Scan end: 3/21/2022	12:09:42 PM
Ring current (mA): 309.08
Source position: x (mm): 0.007 x' (mrad): -0 y (mm): 0.002 y' (mrad): 0.002

SCAN TYPE: PHOTON ENERGY VS VAR_1 VS VAR_2

FILE INFO: FILE INFO:

SCAN PARAMETERS
waiting time (ms): 1000
Number of scans: 1
Current scan number: 1
DARK OFF 
PREDARK OFF 

SCAN PARAMETERS
Regions configuration: 
number of regions: 6
Mirror grating scan: on
Timed acquisition: off
Region 1:
Initial energy (eV): 40.000000
Final energy (eV): 72.000000
Delta energy (eV): 1.000000
Deviation angle choice: Higher order rejection
Deviation angle (°): NaN
Al filter
G1200 channel
range keithley B 20 nA
range keithley C 200 nA
range keithley A 20 nA
Var_1: PsiC 0.000000
Var_2: PhiM0.000000
Bias CEM (V): 0.000000
Bias Keithley B (V): -30.000000
Name region: 
Region 2:
Initial energy (eV): 70.000000
Final energy (eV): 102.000000
Delta energy (eV): 1.000000
Deviation angle choice: Higher order rejection
Deviation angle (°): NaN
Si filter
G1200 channel
range keithley B 20 nA
range keithley C 200 nA
range keithley A 20 nA
Var_1: PsiC 0.000000
Var_2: PhiM0.000000
Bias CEM (V): 0.000000
Bias Keithley B (V): -30.000000
Name region: 
Region 3:
Initial energy (eV): 98.000000
Final energy (eV): 260.000000
Delta energy (eV): 1.000000
Deviation angle choice: Higher order rejection
Deviation angle (°): NaN
Full Beam
G1200 channel
range keithley B 20 nA
range keithley C 200 nA
range keithley A 200 nA
Var_1: PsiC 0.000000
Var_2: PhiM0.000000
Bias CEM (V): 0.000000
Bias Keithley B (V): -30.000000
Name region: 
Region 4:
Initial energy (eV): 255.000000
Final energy (eV): 320.000000
Delta energy (eV): 1.000000
Deviation angle choice: Higher order rejection
Deviation angle (°): NaN
filter Ag 0.6 um
G1200 channel
range keithley B 200 pA
range keithley C 200 nA
range keithley A 200 pA
Var_1: PsiC 0.000000
Var_2: PhiM0.000000
Bias CEM (V): 0.000000
Bias Keithley B (V): -30.000000
Name region: 
Region 5:
Initial energy (eV): 315.000000
Final energy (eV): 1200.000000
Delta energy (eV): 5.000000
Deviation angle choice: Higher order rejection
Deviation angle (°): NaN
Full Beam
G1200 channel
range keithley B 20 nA
range keithley C 200 nA
range keithley A 20 nA
Var_1: PsiC 0.000000
Var_2: PhiM0.000000
Bias CEM (V): 0.000000
Bias Keithley B (V): -30.000000
Name region: 
Region 6:
Initial energy (eV): 1190.000000
Final energy (eV): 1500.000000
Delta energy (eV): 5.000000
Deviation angle choice: Higher order rejection
Deviation angle (°): NaN
filter Ag 0.6 um
G1200 channel
range keithley B 200 pA
range keithley C 200 nA
range keithley A 200 pA
Var_1: PsiC 0.000000
Var_2: PhiM0.000000
Bias CEM (V): 0.000000
Bias Keithley B (V): -30.000000
Name region: 

BEAR MONOCHROMATOR CONFIGURATION: 
Current Grating Position:     -151493.00
Current Mirror Position: 2556.9
Current Grating: G1200
P2 phiz position:  0.0000
Mono axis position: 25.0000
Current Photon Energy (eV): 119.998
Current Deviation Angle: 155.000
Vertical Exit Slits (um): 100.000
Exit slit y axis position: 1.3625
Horizontal Exit Slits (um):  889.156
Exit slit z axis position: 1.9229
Mitutoyo position (mm): 

Dose on sample (mJ/cm^2): NaN

ENERGY CALIBRATION:
offset grating G1200: yes
Delta 0 order G1200:  -1100.0
offset grating G1800: not
Delta 0 order G1800:  0.0
offset grating GNIM: not
Delta 0 order GNIM:  0.0
ZERO ORDER POSITIONS:
Grating G1200: Mirror position:  4938.0
Grating position: -105355.0
Grating G1800: 
Mirror position:  4938.0
Grating position: -106345.0
Grating GNIM: 
Mirror position:  10000.0
Grating position: 227300.0

Initial filter: Full Beam

EXPERIMENTAL CHAMBER CONFIGURATION: 
PsiC (deg):   -0.000186
Phi Analyzer (degrees): 89.992308
Theta Manipulator (degrees): -44.000040
Theta Analyzer (degrees): -135.001468
PhiM (degrees): -0.003077
XM (mm): -4.499188
YM (mm): 22.974263
ZM (mm): (Warning: for kinetic energy scans, 
this parameter is given in the scan settings) 
-14.001425
TiltM (°): 0.000138

ELECTRON ANALYZER CONFIGURATION: 
Current Kinetik energy (eV): 35.0
Mode: DE = COST
Pass Energy (eV):  100.000
CEM: ON
Bias Front-Back CEM (V): 3499.561
Bias Back-Collector CEM (V): 100.874
Bias Retard-Front CEM: 100.087COIL VALUES
Ix (amps):2.820
Iy (amps): 6.789
Iz (amps): 37.337

POLARIZATION SELECTOR CONFIGURATION:
Psi1 (rad): -0.001665535
Psi2 (rad): 0.001417093
Z min position (mm): 46.599650
DZ position (mm): 18.599100
Zmin 0 (mm): 66.500000
DZ0 (mm): 53.000000

BEAM SELECTOR CONFIGURATION:
Zmin position (mm): NaN
DZ position (mm): NaN
Y+ position (mm): NaN
Y- position (mm): NaN

CHANNEL ELECTRON MULTIPLIER CONFIGURATION:
CEM configured: OFF
Bias CEM: 0.000000

FLUORESCENCE DETECTOR CONFIGURATION:
Not configured

LUMINESCENCE MONOCHROMATOR CONFIGURATION:
Optical fiber position (mm): 0.000000
Optical fiber Switch inside: OFF
Optical fiber Switch outside: ON
Monochromator wavelength (A): 0.000000
Limit Switches: ON

I0 MONITOR PARAMETERS:
I0 detector position(mm): -1.924999E+2
Lower switch: OFF
Upper switch: OFF
Valve status:open

PRESSURE PARAMETERS:
Monitor chamber pressure (mbar): 9.44e-10
Experimental chamber pressure -ION GAUGE-(mbar): 0.000000E+0

XMCD PARAMETERS:
Xmcd OFF
Xmcd Direction -
Xmcd current (A): 0.000000

Gated scan off

Instrument 1: AMMETER KEITHLEY 6517A B
Measure type: Current
range type: set range value
range value (ampere):  20 nA
Integration time:  set NPLC value
NPLC value: 10.000
Digital filter count: 2
SAMPLE BIAS (V): -30.000
Vsource: ON
Output Voltage value: 30.000
Vsource range: 1000 V

Instrument 2: AMMETER KEITHLEY 6517A A
Measure type: Current
range type: set range value
range value (ampere):  200 nA
Integration time:  set NPLC value
NPLC value: 10.000
Digital filter count: 2
Vsource: OFF
Output Voltage value: -0.000
Vsource range: 100 V
Trigger source: bus

Range Keithley A changed to 20 nA

Range Keithley A changed to 200 nA

Range Keithley A changed to 200 pA

Range Keithley A changed to 20 nA

Range Keithley A changed to 200 pA

Range Keithley A changed to 20 nA

Range Keithley A changed to 200 nA

Range Keithley A changed to 200 pA

Range Keithley A changed to 20 nA

Range Keithley A changed to 200 pA

Range Keithley A changed to 20 nA

Range Keithley A changed to 200 nA

Range Keithley A changed to 200 pA

Range Keithley A changed to 20 nA

Range Keithley A changed to 200 pA

Range Keithley A changed to 20 nA

Range Keithley A changed to 200 pA

Range Keithley A changed to 20 nA

Range Keithley A changed to 200 pA

Range Keithley A changed to 20 nA

Range Keithley A changed to 200 pA

Range Keithley A changed to 20 nA

Range Keithley A changed to 200 nA

Range Keithley A changed to 200 pA

Range Keithley A changed to 20 nA

Range Keithley A changed to 200 pA

Range Keithley A changed to 20 nA

Range Keithley A changed to 200 nA

Range Keithley A changed to 200 pA

Range Keithley A changed to 20 nA

Range Keithley A changed to 200 nA

Range Keithley A changed to 200 pA

Range Keithley A changed to 20 nA

Range Keithley A changed to 200 pA

Range Keithley A changed to 20 nA

Range Keithley A changed to 200 pA

Range Keithley A changed to 20 nA

Range Keithley A changed to 200 nA

Range Keithley A changed to 200 pA

Range Keithley A changed to 20 nA

Range Keithley A changed to 200 pA

Range Keithley A changed to 20 nA

Range Keithley A changed to 200 nA

Range Keithley A changed to 20 nA

Range Keithley A changed to 200 nA

Range Keithley A changed to 200 pA

Range Keithley A changed to 20 nA

Range Keithley A changed to 200 nA

Range Keithley A changed to 2 uA

Range Keithley A changed to 20 nA

Range Keithley A changed to 200 nA

Range Keithley A changed to 2 uA

Range Keithley A changed to 20 nA

Range Keithley A changed to 200 nA

Range Keithley A changed to 200 pA

Range Keithley A changed to 2 uA

Range Keithley A changed to 20 nA

Range Keithley A changed to 200 nA

Range Keithley A changed to 200 pA

Range Keithley A changed to 20 nA

Range Keithley A changed to 2 uA

Range Keithley A changed to 20 nA

Range Keithley A changed to 200 nA

Range Keithley A changed to 20 nA

Range Keithley A changed to 200 nA

Range Keithley A changed to 200 pA

Range Keithley A changed to 2 uA

Range Keithley A changed to 20 nA

Range Keithley A changed to 200 nA

Range Keithley A changed to 20 nA

Range Keithley A changed to 200 nA

Range Keithley A changed to 200 pA

Range Keithley A changed to 20 nA

Range Keithley A changed to 200 nA

Range Keithley A changed to 20 nA

Range Keithley A changed to 200 nA

Range Keithley A changed to 200 pA

Range Keithley A changed to 20 nA

Range Keithley A changed to 200 nA

Range Keithley A changed to 200 pA

Range Keithley A changed to 20 nA

Range Keithley A changed to 200 pA

Range Keithley A changed to 20 nA

Range Keithley A changed to 200 pA

Range Keithley A changed to 20 nA

Range Keithley A changed to 200 pA

Range Keithley A changed to 20 nA

Range Keithley A changed to 200 pA

Range Keithley A changed to 20 nA

Range Keithley A changed to 200 nA

Range Keithley A changed to 2 uA

Range Keithley A changed to 20 uA

Range Keithley A changed to 200 uA

Range Keithley A changed to 20 nA

Range Keithley A changed to 200 nA

Range Keithley A changed to 200 pA

Range Keithley A changed to 20 nA

Range Keithley A changed to 200 pA

Range Keithley A changed to 20 nA

Range Keithley A changed to 200 nA

Instrument 3: COUNTER ORTEC 996Integration time (sec): 1.000


Range Keithley C changed to 200 nA


________________________________________________________________________________

RelativeTime (msec)	Photon Energy	Var_1	Var_2	INSTR_1_Sample with Bias _(ampere ) 	INSTR_2_Monitor IM_(ampere)  	INSTR_3_Ortec 996 counts_(counts)	I_BPM_sum (Amps)	
________________________________________________________________________________

5.87400000E+3	3.99998128E+1	0.00000000E+0	0.00000000E+0	1.84170000E-10	3.94100000E-11	6.53000000E+2	8.91166942E-5
1.24410000E+4	4.09996846E+1	0.00000000E+0	0.00000000E+0	1.98480000E-10	4.87100000E-11	6.46000000E+2	8.90124338E-5
1.75100000E+4	4.20000262E+1	0.00000000E+0	0.00000000E+0	2.15860000E-10	5.48100000E-11	6.86000000E+2	8.96151888E-5
2.25750000E+4	4.30000611E+1	0.00000000E+0	0.00000000E+0	2.33710000E-10	6.12300000E-11	7.79000000E+2	8.91776489E-5
2.76540000E+4	4.39999194E+1	0.00000000E+0	0.00000000E+0	2.51740000E-10	6.78400000E-11	7.86000000E+2	8.92109739E-5
3.26610000E+4	4.49997546E+1	0.00000000E+0	0.00000000E+0	2.71040000E-10	7.46300000E-11	8.72000000E+2	8.89388339E-5
3.75750000E+4	4.60002152E+1	0.00000000E+0	0.00000000E+0	2.95210000E-10	8.26700000E-11	8.55000000E+2	8.93030839E-5
4.25120000E+4	4.69999866E+1	0.00000000E+0	0.00000000E+0	3.20880000E-10	9.16000000E-11	9.73000000E+2	8.90992688E-5
4.74360000E+4	4.80000110E+1	0.00000000E+0	0.00000000E+0	3.40560000E-10	9.90900000E-11	9.69000000E+2	8.91319918E-5
5.22610000E+4	4.89996657E+1	0.00000000E+0	0.00000000E+0	3.47100000E-10	1.02890000E-10	1.03100000E+3	8.89812099E-5
5.71220000E+4	5.00002798E+1	0.00000000E+0	0.00000000E+0	3.33090000E-10	1.00650000E-10	9.94000000E+2	8.91949015E-5
6.19770000E+4	5.09999851E+1	0.00000000E+0	0.00000000E+0	3.09380000E-10	9.48400000E-11	9.19000000E+2	8.88969051E-5
6.67910000E+4	5.19999552E+1	0.00000000E+0	0.00000000E+0	3.14270000E-10	9.68400000E-11	9.46000000E+2	8.89636146E-5
7.15750000E+4	5.30000391E+1	0.00000000E+0	0.00000000E+0	3.60840000E-10	1.11040000E-10	1.08900000E+3	8.91981410E-5
7.62700000E+4	5.39999559E+1	0.00000000E+0	0.00000000E+0	4.23600000E-10	1.30250000E-10	1.25600000E+3	8.90457796E-5
8.09840000E+4	5.49999130E+1	0.00000000E+0	0.00000000E+0	4.87940000E-10	1.50130000E-10	1.38200000E+3	8.91880976E-5
8.56960000E+4	5.60000054E+1	0.00000000E+0	0.00000000E+0	5.52900000E-10	1.70540000E-10	1.54800000E+3	8.89866250E-5
9.03800000E+4	5.69999843E+1	0.00000000E+0	0.00000000E+0	6.20830000E-10	1.92140000E-10	1.65400000E+3	8.89012234E-5
9.50590000E+4	5.79999762E+1	0.00000000E+0	0.00000000E+0	6.93330000E-10	2.15480000E-10	1.94500000E+3	8.90292453E-5
9.96280000E+4	5.89997853E+1	0.00000000E+0	0.00000000E+0	7.74800000E-10	2.41790000E-10	2.16400000E+3	8.86325435E-5
1.04220000E+5	6.00001720E+1	0.00000000E+0	0.00000000E+0	8.64410000E-10	2.70770000E-10	2.40400000E+3	8.88690846E-5
1.08752000E+5	6.10000729E+1	0.00000000E+0	0.00000000E+0	9.53740000E-10	3.00450000E-10	2.46900000E+3	8.90713768E-5
1.13302000E+5	6.19999118E+1	0.00000000E+0	0.00000000E+0	1.04190000E-9	3.30100000E-10	2.71100000E+3	8.93158602E-5
1.17829000E+5	6.29998944E+1	0.00000000E+0	0.00000000E+0	1.12382000E-9	3.58280000E-10	2.94100000E+3	8.90456157E-5
1.22366000E+5	6.40000540E+1	0.00000000E+0	0.00000000E+0	1.19403000E-9	3.83160000E-10	3.07500000E+3	8.89183121E-5
1.26823000E+5	6.49996302E+1	0.00000000E+0	0.00000000E+0	1.25037000E-9	4.03530000E-10	3.11100000E+3	8.90624063E-5
1.31212000E+5	6.60003004E+1	0.00000000E+0	0.00000000E+0	1.28868000E-9	4.18380000E-10	3.49500000E+3	8.93092232E-5
1.35635000E+5	6.69999268E+1	0.00000000E+0	0.00000000E+0	1.31556000E-9	4.29110000E-10	3.45700000E+3	8.88777302E-5
1.40041000E+5	6.80000684E+1	0.00000000E+0	0.00000000E+0	1.35216000E-9	4.42730000E-10	3.52300000E+3	8.89012949E-5
1.44471000E+5	6.89998897E+1	0.00000000E+0	0.00000000E+0	1.41967000E-9	4.66070000E-10	3.56200000E+3	8.89709370E-5
1.48909000E+5	6.99998166E+1	0.00000000E+0	0.00000000E+0	1.51402000E-9	4.98080000E-10	3.84900000E+3	8.90197353E-5
1.53305000E+5	7.10002325E+1	0.00000000E+0	0.00000000E+0	1.58339000E-9	5.23870000E-10	4.09700000E+3	8.90882479E-5
1.57606000E+5	7.19997153E+1	0.00000000E+0	0.00000000E+0	1.31662000E-9	4.36750000E-10	3.38500000E+3	8.89154659E-5
1.70488000E+5	7.00003959E+1	0.00000000E+0	0.00000000E+0	7.09500000E-10	2.32800000E-10	2.00200000E+3	8.89484273E-5
1.75683000E+5	7.09991398E+1	0.00000000E+0	0.00000000E+0	7.58220000E-10	2.50370000E-10	2.05800000E+3	8.85925667E-5
1.80054000E+5	7.20002261E+1	0.00000000E+0	0.00000000E+0	6.47190000E-10	2.14620000E-10	1.76900000E+3	8.89970170E-5
1.84351000E+5	7.29994814E+1	0.00000000E+0	0.00000000E+0	8.37370000E-10	2.76530000E-10	2.29200000E+3	8.89503555E-5
1.88746000E+5	7.40004165E+1	0.00000000E+0	0.00000000E+0	9.51700000E-10	3.14940000E-10	2.54500000E+3	8.88666855E-5
1.93008000E+5	7.49997972E+1	0.00000000E+0	0.00000000E+0	9.55220000E-10	3.18160000E-10	2.51300000E+3	8.88088451E-5
1.97279000E+5	7.60003534E+1	0.00000000E+0	0.00000000E+0	1.09614000E-9	3.64230000E-10	2.89800000E+3	8.89948355E-5
2.01569000E+5	7.69999167E+1	0.00000000E+0	0.00000000E+0	1.23223000E-9	4.10160000E-10	3.29200000E+3	8.90867995E-5
2.05824000E+5	7.80000988E+1	0.00000000E+0	0.00000000E+0	1.33737000E-9	4.46030000E-10	3.49000000E+3	8.92132180E-5
2.10113000E+5	7.90000333E+1	0.00000000E+0	0.00000000E+0	1.45046000E-9	4.85010000E-10	3.83600000E+3	8.91841130E-5
2.14405000E+5	7.99999504E+1	0.00000000E+0	0.00000000E+0	1.56652000E-9	5.24710000E-10	4.16800000E+3	8.93287497E-5
2.18681000E+5	8.10001560E+1	0.00000000E+0	0.00000000E+0	1.67857000E-9	5.63770000E-10	4.42400000E+3	8.88762103E-5
2.22975000E+5	8.20001080E+1	0.00000000E+0	0.00000000E+0	1.78719000E-9	6.01750000E-10	4.50600000E+3	8.88001965E-5
2.27090000E+5	8.29993932E+1	0.00000000E+0	0.00000000E+0	1.91372000E-9	6.45760000E-10	4.95100000E+3	8.89275836E-5
2.31217000E+5	8.40001079E+1	0.00000000E+0	0.00000000E+0	2.05747000E-9	6.95870000E-10	5.11800000E+3	8.88689207E-5
2.35358000E+5	8.50004678E+1	0.00000000E+0	0.00000000E+0	2.20526000E-9	7.47540000E-10	5.49300000E+3	8.94265490E-5
2.39573000E+5	8.60003041E+1	0.00000000E+0	0.00000000E+0	2.35702000E-9	8.01180000E-10	5.94100000E+3	8.93257933E-5
2.43718000E+5	8.69997731E+1	0.00000000E+0	0.00000000E+0	2.51989000E-9	8.58720000E-10	6.35200000E+3	8.90722143E-5
2.48634000E+5	8.80000031E+1	0.00000000E+0	0.00000000E+0	2.67978000E-9	9.15990000E-10	6.63100000E+3	8.87548105E-5
2.52780000E+5	8.90002366E+1	0.00000000E+0	0.00000000E+0	2.84503000E-9	9.75930000E-10	7.08900000E+3	8.89070259E-5
2.56948000E+5	8.99998405E+1	0.00000000E+0	0.00000000E+0	3.04665000E-9	1.04826000E-9	7.53900000E+3	8.90514927E-5
2.61104000E+5	9.10001188E+1	0.00000000E+0	0.00000000E+0	3.26892000E-9	1.12793000E-9	8.10200000E+3	8.89681624E-5
2.65215000E+5	9.20003597E+1	0.00000000E+0	0.00000000E+0	3.48223000E-9	1.20549000E-9	8.60500000E+3	8.90515463E-5
2.69428000E+5	9.30001604E+1	0.00000000E+0	0.00000000E+0	3.69464000E-9	1.28335000E-9	8.95800000E+3	8.92388957E-5
2.73567000E+5	9.40001606E+1	0.00000000E+0	0.00000000E+0	3.93887000E-9	1.37271000E-9	9.58800000E+3	8.93661278E-5
2.77712000E+5	9.50001981E+1	0.00000000E+0	0.00000000E+0	4.17857000E-9	1.46146000E-9	1.00540000E+4	8.93594163E-5
2.81707000E+5	9.59986739E+1	0.00000000E+0	0.00000000E+0	4.38363000E-9	1.53918000E-9	1.07180000E+4	8.90839117E-5
2.85721000E+5	9.70013001E+1	0.00000000E+0	0.00000000E+0	4.57447000E-9	1.61302000E-9	1.09260000E+4	8.91048001E-5
2.89720000E+5	9.79999137E+1	0.00000000E+0	0.00000000E+0	4.76610000E-9	1.68783000E-9	1.15180000E+4	8.92604517E-5
2.93733000E+5	9.90003715E+1	0.00000000E+0	0.00000000E+0	4.93950000E-9	1.75697000E-9	1.17710000E+4	8.93134998E-5
2.97734000E+5	9.99997864E+1	0.00000000E+0	0.00000000E+0	5.05655000E-9	1.80703000E-9	1.20980000E+4	8.92332481E-5
3.01799000E+5	1.01000284E+2	0.00000000E+0	0.00000000E+0	4.81106000E-9	1.72525000E-9	1.15370000E+4	8.89785753E-5
3.05850000E+5	1.02000498E+2	0.00000000E+0	0.00000000E+0	8.67200000E-11	2.78700000E-11	3.67000000E+2	8.89529394E-5
3.16728000E+5	9.80006888E+1	0.00000000E+0	0.00000000E+0	1.26347100E-8	4.48920000E-9	2.87580000E+4	8.90433656E-5
3.21535000E+5	9.89986334E+1	0.00000000E+0	0.00000000E+0	1.30812500E-8	4.66510000E-9	2.99080000E+4	8.91868340E-5
3.25575000E+5	9.99997864E+1	0.00000000E+0	0.00000000E+0	1.34611200E-8	4.82250000E-9	3.10600000E+4	8.91380446E-5
3.29611000E+5	1.01000083E+2	0.00000000E+0	0.00000000E+0	1.37914500E-8	4.96580000E-9	3.16980000E+4	8.92916637E-5
3.33646000E+5	1.02000703E+2	0.00000000E+0	0.00000000E+0	1.41808300E-8	5.13320000E-9	3.22030000E+4	8.87266622E-5
3.37710000E+5	1.03000020E+2	0.00000000E+0	0.00000000E+0	1.46586800E-8	5.33650000E-9	3.35030000E+4	8.87293087E-5
3.41780000E+5	1.03999714E+2	0.00000000E+0	0.00000000E+0	1.51476100E-8	5.54540000E-9	3.44600000E+4	8.91135769E-5
3.45814000E+5	1.05000315E+2	0.00000000E+0	0.00000000E+0	1.56533000E-8	5.76150000E-9	3.54960000E+4	8.91475992E-5
3.49841000E+5	1.06000427E+2	0.00000000E+0	0.00000000E+0	1.62687400E-8	6.00320000E-9	3.67110000E+4	8.88228969E-5
3.53902000E+5	1.06999691E+2	0.00000000E+0	0.00000000E+0	1.70102500E-8	6.27980000E-9	3.81050000E+4	8.89876382E-5
3.57931000E+5	1.08000044E+2	0.00000000E+0	0.00000000E+0	1.76776000E-8	6.55900000E-9	3.92240000E+4	8.90570151E-5
3.61868000E+5	1.08999609E+2	0.00000000E+0	0.00000000E+0	1.82816400E-8	6.80210000E-9	4.01150000E+4	8.89998870E-5
3.65787000E+5	1.10000440E+2	0.00000000E+0	0.00000000E+0	1.87741100E-8	7.07230000E-9	4.07300000E+4	8.87536661E-5
3.69673000E+5	1.10999666E+2	0.00000000E+0	0.00000000E+0	1.92168200E-8	7.29280000E-9	4.14190000E+4	8.88335841E-5
3.73584000E+5	1.11999906E+2	0.00000000E+0	0.00000000E+0	1.96979400E-8	7.51050000E-9	4.26110000E+4	8.91491072E-5
3.77559000E+5	1.13000721E+2	0.00000000E+0	0.00000000E+0	2.01669400E-8	7.73230000E-9	4.35220000E+4	8.88932006E-5
3.81448000E+5	1.13999860E+2	0.00000000E+0	0.00000000E+0	2.06054000E-8	7.94270000E-9	4.46800000E+4	8.91839998E-5
3.85401000E+5	1.15000666E+2	0.00000000E+0	0.00000000E+0	9.90000000E+37	8.13800000E-9	4.52370000E+4	8.90063064E-5
3.89318000E+5	1.16000105E+2	0.00000000E+0	0.00000000E+0	9.90000000E+37	8.32350000E-9	4.49810000E+4	8.89725493E-5
3.93229000E+5	1.17000072E+2	0.00000000E+0	0.00000000E+0	9.90000000E+37	8.49240000E-9	4.58990000E+4	8.91692417E-5
3.97214000E+5	1.18000415E+2	0.00000000E+0	0.00000000E+0	9.90000000E+37	8.62210000E-9	4.56490000E+4	8.90082883E-5
4.01080000E+5	1.18999870E+2	0.00000000E+0	0.00000000E+0	9.90000000E+37	8.70540000E-9	4.59290000E+4	8.89366733E-5
4.04994000E+5	1.20000508E+2	0.00000000E+0	0.00000000E+0	9.90000000E+37	8.75220000E-9	4.55440000E+4	8.91187834E-5
4.08903000E+5	1.20999938E+2	0.00000000E+0	0.00000000E+0	9.90000000E+37	8.77830000E-9	4.55350000E+4	8.90052812E-5
4.12775000E+5	1.21999452E+2	0.00000000E+0	0.00000000E+0	9.90000000E+37	8.79380000E-9	4.55190000E+4	8.90907424E-5
4.16698000E+5	1.23000674E+2	0.00000000E+0	0.00000000E+0	9.90000000E+37	8.80990000E-9	4.56140000E+4	8.88811337E-5
4.20673000E+5	1.23999392E+2	0.00000000E+0	0.00000000E+0	9.90000000E+37	8.79360000E-9	4.49610000E+4	8.93398153E-5
4.24661000E+5	1.25000297E+2	0.00000000E+0	0.00000000E+0	9.90000000E+37	8.75190000E-9	4.46090000E+4	8.92849313E-5
4.28617000E+5	1.25999969E+2	0.00000000E+0	0.00000000E+0	9.90000000E+37	8.69400000E-9	4.38640000E+4	8.97914695E-5
4.32566000E+5	1.26999231E+2	0.00000000E+0	0.00000000E+0	2.08687900E-8	8.61570000E-9	4.35560000E+4	8.91445624E-5
4.36378000E+5	1.27998325E+2	0.00000000E+0	0.00000000E+0	2.05205000E-8	8.51490000E-9	4.25080000E+4	8.94047575E-5
4.40144000E+5	1.29000473E+2	0.00000000E+0	0.00000000E+0	2.01263800E-8	8.39470000E-9	4.14020000E+4	8.93024938E-5
4.43908000E+5	1.30000118E+2	0.00000000E+0	0.00000000E+0	1.96966300E-8	8.25810000E-9	4.11420000E+4	8.87300418E-5
4.47653000E+5	1.31000835E+2	0.00000000E+0	0.00000000E+0	1.92234900E-8	8.10240000E-9	3.97850000E+4	8.90348421E-5
4.51410000E+5	1.32001968E+2	0.00000000E+0	0.00000000E+0	1.87008300E-8	7.92410000E-9	3.86100000E+4	8.91562807E-5
4.55923000E+5	1.32998649E+2	0.00000000E+0	0.00000000E+0	1.81321800E-8	7.72520000E-9	3.70390000E+4	8.90862422E-5
4.59664000E+5	1.33999542E+2	0.00000000E+0	0.00000000E+0	1.75225900E-8	7.50500000E-9	3.57310000E+4	8.88918446E-5
4.63486000E+5	1.35000856E+2	0.00000000E+0	0.00000000E+0	1.68844500E-8	7.26940000E-9	3.47000000E+4	8.90684800E-5
4.67244000E+5	1.36000861E+2	0.00000000E+0	0.00000000E+0	1.62296600E-8	7.02250000E-9	3.35480000E+4	8.94557672E-5
4.71049000E+5	1.36998775E+2	0.00000000E+0	0.00000000E+0	1.55660200E-8	6.76860000E-9	3.21270000E+4	8.90411006E-5
