G:\BEAR_storage\User_Experiments\20220317_arneodo\file(1)_Region 4__0036.txt
Ring Energy (GeV): 2
Lifetime (hours): 14.8142
Scan beginning: 3/18/2022	4:14:50 PM
Ring current (mA): 308.39
Source position: x (mm): 0.005 x' (mrad): -0.001 y (mm): 0.007 y' (mrad): 0.001
Scan end: 3/18/2022	4:37:29 PM
Ring current (mA): 308.36
Source position: x (mm): 0.003 x' (mrad): -0 y (mm): 0.007 y' (mrad): 0

SCAN TYPE: PHOTON ENERGY VS VAR_1 VS VAR_2

FILE INFO: FILE INFO:

SCAN PARAMETERS
waiting time (ms): 0
Number of scans: 1
Current scan number: 1
DARK OFF 
PREDARK OFF 

SCAN PARAMETERS
Regions configuration: 
number of regions: 6
Mirror grating scan: on
Timed acquisition: off
Region 1:
Initial energy (eV): 40.000000
Final energy (eV): 72.000000
Delta energy (eV): 1.000000
Deviation angle choice: Higher order rejection
Deviation angle (°): NaN
Al filter
G1200 channel
range keithley B 20 nA
range keithley C 200 nA
range keithley A 20 nA
Var_1: PsiC 0.000000
Var_2: PhiM0.000000
Bias CEM (V): 0.000000
Bias Keithley B (V): -30.000000
Name region: 
Region 2:
Initial energy (eV): 70.000000
Final energy (eV): 102.000000
Delta energy (eV): 1.000000
Deviation angle choice: Higher order rejection
Deviation angle (°): NaN
Si filter
G1200 channel
range keithley B 20 nA
range keithley C 200 nA
range keithley A 20 nA
Var_1: PsiC 0.000000
Var_2: PhiM0.000000
Bias CEM (V): 0.000000
Bias Keithley B (V): -30.000000
Name region: 
Region 3:
Initial energy (eV): 98.000000
Final energy (eV): 260.000000
Delta energy (eV): 1.000000
Deviation angle choice: Higher order rejection
Deviation angle (°): NaN
Full Beam
G1200 channel
range keithley B 20 nA
range keithley C 200 nA
range keithley A 200 nA
Var_1: PsiC 0.000000
Var_2: PhiM0.000000
Bias CEM (V): 0.000000
Bias Keithley B (V): -30.000000
Name region: 
Region 4:
Initial energy (eV): 255.000000
Final energy (eV): 320.000000
Delta energy (eV): 1.000000
Deviation angle choice: Higher order rejection
Deviation angle (°): NaN
filter Ag 0.6 um
G1200 channel
range keithley B 200 pA
range keithley C 200 nA
range keithley A 200 pA
Var_1: PsiC 0.000000
Var_2: PhiM0.000000
Bias CEM (V): 0.000000
Bias Keithley B (V): -30.000000
Name region: 
Region 5:
Initial energy (eV): 315.000000
Final energy (eV): 1200.000000
Delta energy (eV): 5.000000
Deviation angle choice: Higher order rejection
Deviation angle (°): NaN
Full Beam
G1200 channel
range keithley B 20 nA
range keithley C 200 nA
range keithley A 20 nA
Var_1: PsiC 0.000000
Var_2: PhiM0.000000
Bias CEM (V): 0.000000
Bias Keithley B (V): -30.000000
Name region: 
Region 6:
Initial energy (eV): 1190.000000
Final energy (eV): 1500.000000
Delta energy (eV): 5.000000
Deviation angle choice: Higher order rejection
Deviation angle (°): NaN
filter Ag 0.6 um
G1200 channel
range keithley B 200 pA
range keithley C 200 nA
range keithley A 200 pA
Var_1: PsiC 0.000000
Var_2: PhiM0.000000
Bias CEM (V): 0.000000
Bias Keithley B (V): -30.000000
Name region: 

BEAR MONOCHROMATOR CONFIGURATION: 
Current Grating Position:     -200137.40
Current Mirror Position: 2559.2
Current Grating: G1200
P2 phiz position:  0.0000
Mono axis position: 25.0000
Current Photon Energy (eV): 55.806
Current Deviation Angle: 155.000
Vertical Exit Slits (um): 100.000
Exit slit y axis position: 1.3625
Horizontal Exit Slits (um):  889.156
Exit slit z axis position: 1.9229
Mitutoyo position (mm): 

Dose on sample (mJ/cm^2): NaN

ENERGY CALIBRATION:
offset grating G1200: yes
Delta 0 order G1200:  -800.0
offset grating G1800: not
Delta 0 order G1800:  0.0
offset grating GNIM: not
Delta 0 order GNIM:  0.0
ZERO ORDER POSITIONS:
Grating G1200: Mirror position:  4938.0
Grating position: -105355.0
Grating G1800: 
Mirror position:  4938.0
Grating position: -106345.0
Grating GNIM: 
Mirror position:  10000.0
Grating position: 227300.0

Initial filter: Full Beam

EXPERIMENTAL CHAMBER CONFIGURATION: 
PsiC (deg):   -0.000186
Phi Analyzer (degrees): 89.993255
Theta Manipulator (degrees): -44.000040
Theta Analyzer (degrees): -135.001468
PhiM (degrees): -0.005129
XM (mm): 0.000763
YM (mm): 19.932987
ZM (mm): (Warning: for kinetic energy scans, 
this parameter is given in the scan settings) 
-6.601425
TiltM (°): 0.000138

ELECTRON ANALYZER CONFIGURATION: 
Current Kinetik energy (eV): 35.0
Mode: DE = COST
Pass Energy (eV):  50.000
CEM: ON
Bias Front-Back CEM (V): 3499.561
Bias Back-Collector CEM (V): 100.874
Bias Retard-Front CEM: 100.087COIL VALUES
Ix (amps):2.820
Iy (amps): 6.789
Iz (amps): 37.337

POLARIZATION SELECTOR CONFIGURATION:
Psi1 (rad): -0.001665535
Psi2 (rad): 0.001417093
Z min position (mm): 46.599650
DZ position (mm): 18.599100
Zmin 0 (mm): 66.500000
DZ0 (mm): 53.000000

BEAM SELECTOR CONFIGURATION:
Zmin position (mm): NaN
DZ position (mm): NaN
Y+ position (mm): NaN
Y- position (mm): NaN

CHANNEL ELECTRON MULTIPLIER CONFIGURATION:
CEM configured: OFF
Bias CEM: 0.000000

FLUORESCENCE DETECTOR CONFIGURATION:
Not configured

LUMINESCENCE MONOCHROMATOR CONFIGURATION:
Optical fiber position (mm): 0.000000
Optical fiber Switch inside: OFF
Optical fiber Switch outside: ON
Monochromator wavelength (A): 0.000000
Limit Switches: ON

I0 MONITOR PARAMETERS:
I0 detector position(mm): -1.924999E+2
Lower switch: OFF
Upper switch: OFF
Valve status:open

PRESSURE PARAMETERS:
Monitor chamber pressure (mbar): 9.263e-10
Experimental chamber pressure -ION GAUGE-(mbar): 0.000000E+0

XMCD PARAMETERS:
Xmcd OFF
Xmcd Direction -
Xmcd current (A): 0.000000

Gated scan off

Instrument 1: AMMETER KEITHLEY 6517A B
Measure type: Current
range type: set range value
range value (ampere):  200 pA
Integration time:  set NPLC value
NPLC value: 10.000
Digital filter count: 2
SAMPLE BIAS (V): -30.000
Vsource: ON
Output Voltage value: 30.000
Vsource range: 1000 V

Range Keithley B changed to 20 nA

Range Keithley B changed to 200 pA

Range Keithley B changed to 20 nA

Range Keithley B changed to 200 pA

Range Keithley B changed to 20 nA

Range Keithley B changed to 200 pA

Range Keithley B changed to 20 nA

Range Keithley B changed to 200 nA

Range Keithley B changed to 200 pA

Range Keithley B changed to 20 nA

Range Keithley B changed to 200 pA

Range Keithley B changed to 20 nA

Range Keithley B changed to 200 pA

Range Keithley B changed to 20 nA

Range Keithley B changed to 200 pA

Range Keithley B changed to 20 nA

Instrument 2: AMMETER KEITHLEY 6517A A
Measure type: Current
range type: set range value
range value (ampere):  200 nA
Integration time:  set NPLC value
NPLC value: 10.000
Digital filter count: 2
Vsource: OFF
Output Voltage value: -0.000
Vsource range: 100 V
Trigger source: bus

Range Keithley A changed to 20 nA

Range Keithley A changed to 200 nA

Range Keithley A changed to 200 pA

Range Keithley A changed to 20 nA

Range Keithley A changed to 200 pA

Range Keithley A changed to 20 nA

Range Keithley A changed to 200 nA

Range Keithley A changed to 200 pA

Range Keithley A changed to 20 nA

Range Keithley A changed to 200 pA

Range Keithley A changed to 20 nA

Range Keithley A changed to 200 nA

Range Keithley A changed to 200 pA

Range Keithley A changed to 20 nA

Range Keithley A changed to 200 pA

Range Keithley A changed to 20 nA

Range Keithley A changed to 200 pA

Range Keithley A changed to 20 nA

Range Keithley A changed to 200 pA

Range Keithley A changed to 20 nA

Range Keithley A changed to 200 pA

Range Keithley A changed to 20 nA

Range Keithley A changed to 200 nA

Range Keithley A changed to 200 pA

Range Keithley A changed to 20 nA

Range Keithley A changed to 200 pA

Range Keithley A changed to 20 nA

Range Keithley A changed to 200 nA

Range Keithley A changed to 200 pA

Range Keithley A changed to 20 nA

Range Keithley A changed to 200 nA

Range Keithley A changed to 200 pA

Range Keithley A changed to 20 nA

Range Keithley A changed to 200 pA

Range Keithley A changed to 20 nA

Range Keithley A changed to 200 pA

Range Keithley A changed to 20 nA

Range Keithley A changed to 200 nA

Range Keithley A changed to 200 pA

Range Keithley A changed to 20 nA

Instrument 3: COUNTER ORTEC 996Integration time (sec): 1.000


Range Keithley C changed to 200 nA


________________________________________________________________________________

RelativeTime (msec)	Photon Energy	Var_1	Var_2	INSTR_1_Sample with Bias _(ampere ) 	INSTR_2_Monitor IM_(ampere)  	INSTR_3_Ortec 996 counts_(counts)	I_BPM_sum (Amps)	
________________________________________________________________________________

1.01375600E+6	2.55005825E+2	0.00000000E+0	0.00000000E+0	1.16340000E-12	8.84530000E-12	3.52000000E+2	8.89840858E-5
1.01967900E+6	2.55992502E+2	0.00000000E+0	0.00000000E+0	1.11860000E-12	9.24430000E-12	3.67000000E+2	8.94367325E-5
1.02481300E+6	2.57002144E+2	0.00000000E+0	0.00000000E+0	1.01170000E-12	9.45470000E-12	3.74000000E+2	8.91823637E-5
1.02995400E+6	2.58000566E+2	0.00000000E+0	0.00000000E+0	1.07630000E-12	9.61850000E-12	3.50000000E+2	8.97369134E-5
1.03507200E+6	2.58998429E+2	0.00000000E+0	0.00000000E+0	1.08590000E-12	9.76340000E-12	3.47000000E+2	8.92986672E-5
1.04024200E+6	2.60003349E+2	0.00000000E+0	0.00000000E+0	1.02060000E-12	9.88680000E-12	3.07000000E+2	8.92092185E-5
1.04534200E+6	2.60999558E+2	0.00000000E+0	0.00000000E+0	1.08850000E-12	1.00082000E-11	3.63000000E+2	8.97232580E-5
1.05052600E+6	2.61999383E+2	0.00000000E+0	0.00000000E+0	1.04530000E-12	1.01336000E-11	3.26000000E+2	8.92956393E-5
1.05565700E+6	2.63004114E+2	0.00000000E+0	0.00000000E+0	1.04120000E-12	1.02538000E-11	3.28000000E+2	8.99409163E-5
1.06076600E+6	2.63996929E+2	0.00000000E+0	0.00000000E+0	1.05830000E-12	1.03868000E-11	3.18000000E+2	8.96642255E-5
1.06593200E+6	2.64995914E+2	0.00000000E+0	0.00000000E+0	1.06110000E-12	1.05224000E-11	3.54000000E+2	8.94979226E-5
1.07107700E+6	2.66000886E+2	0.00000000E+0	0.00000000E+0	1.02530000E-12	1.06699000E-11	3.74000000E+2	8.90085714E-5
1.07626000E+6	2.67000360E+2	0.00000000E+0	0.00000000E+0	9.94900000E-13	1.08270000E-11	3.22000000E+2	8.92072814E-5
1.08140300E+6	2.68002027E+2	0.00000000E+0	0.00000000E+0	1.06430000E-12	1.09983000E-11	3.43000000E+2	8.91316967E-5
1.08656300E+6	2.68997102E+2	0.00000000E+0	0.00000000E+0	1.11390000E-12	1.11788000E-11	3.70000000E+2	8.95806598E-5
1.09169500E+6	2.70000824E+2	0.00000000E+0	0.00000000E+0	9.65800000E-13	1.13703000E-11	3.31000000E+2	8.92939674E-5
1.09681800E+6	2.70999741E+2	0.00000000E+0	0.00000000E+0	1.02080000E-12	1.15702000E-11	3.37000000E+2	8.95380604E-5
1.10194500E+6	2.71996304E+2	0.00000000E+0	0.00000000E+0	1.04490000E-12	1.17684000E-11	3.35000000E+2	8.95644056E-5
1.10708300E+6	2.73002382E+2	0.00000000E+0	0.00000000E+0	1.00290000E-12	1.19695000E-11	3.43000000E+2	8.94872921E-5
1.11221800E+6	2.74001399E+2	0.00000000E+0	0.00000000E+0	1.03830000E-12	1.21629000E-11	3.31000000E+2	8.94184279E-5
1.11736400E+6	2.74999478E+2	0.00000000E+0	0.00000000E+0	1.06440000E-12	1.23506000E-11	3.25000000E+2	8.97783476E-5
1.12249100E+6	2.76002256E+2	0.00000000E+0	0.00000000E+0	9.81600000E-13	1.25162000E-11	3.28000000E+2	8.94319432E-5
1.12843400E+6	2.76998642E+2	0.00000000E+0	0.00000000E+0	9.91600000E-13	1.26673000E-11	3.33000000E+2	8.95593810E-5
1.13357500E+6	2.78005944E+2	0.00000000E+0	0.00000000E+0	9.69000000E-13	1.27957000E-11	3.12000000E+2	8.94347476E-5
1.13868500E+6	2.78998564E+2	0.00000000E+0	0.00000000E+0	9.14200000E-13	1.29088000E-11	3.54000000E+2	8.95973819E-5
1.14379600E+6	2.80002200E+2	0.00000000E+0	0.00000000E+0	9.07400000E-13	1.30134000E-11	3.32000000E+2	8.94290345E-5
1.14898300E+6	2.80999455E+2	0.00000000E+0	0.00000000E+0	9.60200000E-13	1.31045000E-11	3.14000000E+2	8.93389510E-5
1.15410400E+6	2.81997661E+2	0.00000000E+0	0.00000000E+0	8.91200000E-13	1.31955000E-11	3.18000000E+2	8.90337812E-5
1.15923400E+6	2.83003533E+2	0.00000000E+0	0.00000000E+0	8.78400000E-13	1.32889000E-11	2.84000000E+2	8.92437803E-5
1.16437800E+6	2.83996237E+2	0.00000000E+0	0.00000000E+0	8.56900000E-13	1.33871000E-11	2.98000000E+2	8.93050777E-5
1.16952300E+6	2.84995582E+2	0.00000000E+0	0.00000000E+0	8.22600000E-13	1.35351000E-11	2.65000000E+2	8.95154017E-5
1.17463100E+6	2.86000417E+2	0.00000000E+0	0.00000000E+0	7.64900000E-13	1.36447000E-11	2.64000000E+2	8.95927000E-5
1.17976000E+6	2.87001972E+2	0.00000000E+0	0.00000000E+0	7.48700000E-13	1.37236000E-11	2.56000000E+2	8.99721104E-5
1.18487800E+6	2.88000680E+2	0.00000000E+0	0.00000000E+0	7.12600000E-13	1.37590000E-11	2.35000000E+2	8.95531552E-5
1.19003200E+6	2.88999732E+2	0.00000000E+0	0.00000000E+0	6.46800000E-13	1.36884000E-11	2.12000000E+2	8.94652414E-5
1.19514600E+6	2.89996871E+2	0.00000000E+0	0.00000000E+0	5.72700000E-13	1.35019000E-11	1.94000000E+2	8.94670444E-5
1.20027900E+6	2.91001160E+2	0.00000000E+0	0.00000000E+0	4.40700000E-13	1.49621000E-11	1.56000000E+2	8.95987319E-5
1.20543600E+6	2.91998173E+2	0.00000000E+0	0.00000000E+0	3.95100000E-13	1.81072000E-11	1.19000000E+2	8.97042322E-5
1.21053600E+6	2.92996840E+2	0.00000000E+0	0.00000000E+0	3.56500000E-13	2.97628000E-11	1.28000000E+2	8.95144748E-5
1.21563700E+6	2.93997287E+2	0.00000000E+0	0.00000000E+0	5.85300000E-13	3.27647000E-11	1.86000000E+2	8.95636218E-5
1.22075300E+6	2.95005158E+2	0.00000000E+0	0.00000000E+0	4.58900000E-13	3.80299000E-11	1.38000000E+2	8.96434056E-5
1.22584600E+6	2.95996713E+2	0.00000000E+0	0.00000000E+0	4.37800000E-13	4.49396000E-11	1.50000000E+2	8.97544640E-5
1.23095900E+6	2.97002612E+2	0.00000000E+0	0.00000000E+0	4.41300000E-13	4.58624000E-11	1.63000000E+2	8.92922746E-5
1.23609300E+6	2.97998086E+2	0.00000000E+0	0.00000000E+0	5.13700000E-13	4.50917000E-11	1.56000000E+2	8.98097980E-5
1.24121500E+6	2.98999008E+2	0.00000000E+0	0.00000000E+0	5.34500000E-13	4.25950000E-11	1.65000000E+2	8.89750169E-5
1.24631400E+6	2.99996098E+2	0.00000000E+0	0.00000000E+0	7.01300000E-13	4.16604000E-11	2.19000000E+2	8.91510444E-5
1.25147400E+6	3.00997727E+2	0.00000000E+0	0.00000000E+0	8.67800000E-13	4.34405000E-11	2.51000000E+2	8.92662751E-5
1.25660600E+6	3.02002604E+2	0.00000000E+0	0.00000000E+0	9.93700000E-13	4.57906000E-11	2.96000000E+2	8.95154583E-5
1.26176000E+6	3.03005989E+2	0.00000000E+0	0.00000000E+0	1.03620000E-12	4.80010000E-11	3.64000000E+2	8.95130801E-5
1.26686200E+6	3.03997110E+2	0.00000000E+0	0.00000000E+0	1.10200000E-12	4.99110000E-11	4.02000000E+2	8.91971605E-5
1.27200700E+6	3.05006384E+2	0.00000000E+0	0.00000000E+0	1.18220000E-12	5.15066000E-11	3.96000000E+2	8.98607927E-5
1.27713900E+6	3.05999296E+2	0.00000000E+0	0.00000000E+0	1.22450000E-12	5.28216000E-11	3.85000000E+2	8.97306281E-5
1.28227100E+6	3.07004284E+2	0.00000000E+0	0.00000000E+0	1.34910000E-12	5.42084000E-11	4.11000000E+2	8.92739700E-5
1.28749500E+6	3.07995959E+2	0.00000000E+0	0.00000000E+0	1.45100000E-12	5.55968000E-11	4.41000000E+2	8.97798109E-5
1.29266200E+6	3.09003387E+2	0.00000000E+0	0.00000000E+0	1.53090000E-12	5.67883000E-11	4.63000000E+2	8.95762878E-5
1.29789500E+6	3.09998369E+2	0.00000000E+0	0.00000000E+0	1.65310000E-12	5.82128000E-11	5.26000000E+2	8.95324724E-5
1.30302200E+6	3.11002126E+2	0.00000000E+0	0.00000000E+0	1.74430000E-12	5.95398000E-11	5.54000000E+2	8.94652831E-5
1.30816300E+6	3.12002153E+2	0.00000000E+0	0.00000000E+0	1.81510000E-12	6.07630000E-11	6.26000000E+2	8.94243198E-5
1.31333700E+6	3.12997306E+2	0.00000000E+0	0.00000000E+0	2.00260000E-12	6.20625000E-11	7.13000000E+2	8.92778086E-5
1.31854300E+6	3.14006534E+2	0.00000000E+0	0.00000000E+0	2.14160000E-12	6.34792000E-11	6.61000000E+2	8.96808582E-5
1.32364200E+6	3.14998698E+2	0.00000000E+0	0.00000000E+0	2.27900000E-12	6.50031000E-11	7.21000000E+2	8.95252752E-5
1.32874000E+6	3.16000071E+2	0.00000000E+0	0.00000000E+0	2.44730000E-12	6.66450000E-11	8.36000000E+2	8.96540927E-5
1.33392600E+6	3.16999458E+2	0.00000000E+0	0.00000000E+0	2.65350000E-12	6.84758000E-11	8.96000000E+2	8.93868076E-5
1.33903700E+6	3.17996159E+2	0.00000000E+0	0.00000000E+0	2.87000000E-12	7.03751000E-11	9.60000000E+2	8.94099700E-5
1.34415500E+6	3.19009034E+2	0.00000000E+0	0.00000000E+0	2.92070000E-12	7.22024000E-11	9.36000000E+2	8.95608711E-5
1.34926300E+6	3.19998883E+2	0.00000000E+0	0.00000000E+0	2.91140000E-12	7.37367000E-11	9.51000000E+2	8.92024057E-5
