G:\BEAR_storage\User_Experiments\20220317_arneodo\file(1)_Region 2__0040.txt
Ring Energy (GeV): 2
Lifetime (hours): 0
Scan beginning: 3/18/2022	6:36:07 PM
Ring current (mA): 82.2
Source position: x (mm): -0.121 x' (mrad): 0.192 y (mm): -0.115 y' (mrad): -0.035
Scan end: 3/18/2022	6:40:23 PM
Ring current (mA): 95.02
Source position: x (mm): -0.123 x' (mrad): 0.197 y (mm): -0.11 y' (mrad): -0.037

SCAN TYPE: PHOTON ENERGY VS VAR_1 VS VAR_2

FILE INFO: FILE INFO:

SCAN PARAMETERS
waiting time (ms): 0
Number of scans: 1
Current scan number: 1
DARK OFF 
PREDARK OFF 

SCAN PARAMETERS
Regions configuration: 
number of regions: 6
Mirror grating scan: on
Timed acquisition: off
Region 1:
Initial energy (eV): 40.000000
Final energy (eV): 72.000000
Delta energy (eV): 1.000000
Deviation angle choice: Higher order rejection
Deviation angle (°): NaN
Al filter
G1200 channel
range keithley B 20 nA
range keithley C 200 nA
range keithley A 20 nA
Var_1: PsiC 0.000000
Var_2: PhiM0.000000
Bias CEM (V): 0.000000
Bias Keithley B (V): -30.000000
Name region: 
Region 2:
Initial energy (eV): 70.000000
Final energy (eV): 102.000000
Delta energy (eV): 1.000000
Deviation angle choice: Higher order rejection
Deviation angle (°): NaN
Si filter
G1200 channel
range keithley B 20 nA
range keithley C 200 nA
range keithley A 20 nA
Var_1: PsiC 0.000000
Var_2: PhiM0.000000
Bias CEM (V): 0.000000
Bias Keithley B (V): -30.000000
Name region: 
Region 3:
Initial energy (eV): 98.000000
Final energy (eV): 260.000000
Delta energy (eV): 1.000000
Deviation angle choice: Higher order rejection
Deviation angle (°): NaN
Full Beam
G1200 channel
range keithley B 20 nA
range keithley C 200 nA
range keithley A 200 nA
Var_1: PsiC 0.000000
Var_2: PhiM0.000000
Bias CEM (V): 0.000000
Bias Keithley B (V): -30.000000
Name region: 
Region 4:
Initial energy (eV): 255.000000
Final energy (eV): 320.000000
Delta energy (eV): 1.000000
Deviation angle choice: Higher order rejection
Deviation angle (°): NaN
filter Ag 0.6 um
G1200 channel
range keithley B 200 pA
range keithley C 200 nA
range keithley A 200 pA
Var_1: PsiC 0.000000
Var_2: PhiM0.000000
Bias CEM (V): 0.000000
Bias Keithley B (V): -30.000000
Name region: 
Region 5:
Initial energy (eV): 315.000000
Final energy (eV): 1200.000000
Delta energy (eV): 5.000000
Deviation angle choice: Higher order rejection
Deviation angle (°): NaN
Full Beam
G1200 channel
range keithley B 20 nA
range keithley C 200 nA
range keithley A 20 nA
Var_1: PsiC 0.000000
Var_2: PhiM0.000000
Bias CEM (V): 0.000000
Bias Keithley B (V): -30.000000
Name region: 
Region 6:
Initial energy (eV): 1190.000000
Final energy (eV): 1500.000000
Delta energy (eV): 5.000000
Deviation angle choice: Higher order rejection
Deviation angle (°): NaN
filter Ag 0.6 um
G1200 channel
range keithley B 200 pA
range keithley C 200 nA
range keithley A 200 pA
Var_1: PsiC 0.000000
Var_2: PhiM0.000000
Bias CEM (V): 0.000000
Bias Keithley B (V): -30.000000
Name region: 

BEAR MONOCHROMATOR CONFIGURATION: 
Current Grating Position:     -236072.20
Current Mirror Position: 2557.0
Current Grating: G1200
P2 phiz position:  0.0000
Mono axis position: 25.0000
Current Photon Energy (eV): 40.000
Current Deviation Angle: 155.000
Vertical Exit Slits (um): 450.000
Exit slit y axis position: 2.2375
Horizontal Exit Slits (um):  889.156
Exit slit z axis position: 1.9229
Mitutoyo position (mm): 

Dose on sample (mJ/cm^2): NaN

ENERGY CALIBRATION:
offset grating G1200: yes
Delta 0 order G1200:  -800.0
offset grating G1800: not
Delta 0 order G1800:  0.0
offset grating GNIM: not
Delta 0 order GNIM:  0.0
ZERO ORDER POSITIONS:
Grating G1200: Mirror position:  4938.0
Grating position: -105355.0
Grating G1800: 
Mirror position:  4938.0
Grating position: -106345.0
Grating GNIM: 
Mirror position:  10000.0
Grating position: 227300.0

Initial filter: Al filter

EXPERIMENTAL CHAMBER CONFIGURATION: 
PsiC (deg):   -0.000186
Phi Analyzer (degrees): 89.992308
Theta Manipulator (degrees): -44.000040
Theta Analyzer (degrees): -135.001468
PhiM (degrees): -0.004103
XM (mm): 0.000713
YM (mm): 19.932987
ZM (mm): (Warning: for kinetic energy scans, 
this parameter is given in the scan settings) 
-6.601438
TiltM (°): 0.000138

ELECTRON ANALYZER CONFIGURATION: 
Current Kinetik energy (eV): 35.0
Mode: DE = COST
Pass Energy (eV):  50.000
CEM: ON
Bias Front-Back CEM (V): 3499.561
Bias Back-Collector CEM (V): 100.874
Bias Retard-Front CEM: 100.087COIL VALUES
Ix (amps):2.820
Iy (amps): 6.789
Iz (amps): 37.337

POLARIZATION SELECTOR CONFIGURATION:
Psi1 (rad): -0.001665535
Psi2 (rad): 0.001417093
Z min position (mm): 46.599650
DZ position (mm): 18.599100
Zmin 0 (mm): 66.500000
DZ0 (mm): 53.000000

BEAM SELECTOR CONFIGURATION:
Zmin position (mm): NaN
DZ position (mm): NaN
Y+ position (mm): NaN
Y- position (mm): NaN

CHANNEL ELECTRON MULTIPLIER CONFIGURATION:
CEM configured: OFF
Bias CEM: 0.000000

FLUORESCENCE DETECTOR CONFIGURATION:
Not configured

LUMINESCENCE MONOCHROMATOR CONFIGURATION:
Optical fiber position (mm): 0.000000
Optical fiber Switch inside: OFF
Optical fiber Switch outside: ON
Monochromator wavelength (A): 0.000000
Limit Switches: ON

I0 MONITOR PARAMETERS:
I0 detector position(mm): -0.000000E+0
Lower switch: OFF
Upper switch: OFF
Valve status:open

PRESSURE PARAMETERS:
Monitor chamber pressure (mbar): 9.288e-10
Experimental chamber pressure -ION GAUGE-(mbar): 0.000000E+0

XMCD PARAMETERS:
Xmcd OFF
Xmcd Direction -
Xmcd current (A): 0.000000

Gated scan off

Instrument 1: AMMETER KEITHLEY 6517A B
Measure type: Current
range type: set range value
range value (ampere):  200 pA
Integration time:  set NPLC value
NPLC value: 10.000
Digital filter count: 2
SAMPLE BIAS (V): -30.000
Vsource: ON
Output Voltage value: 30.000
Vsource range: 1000 V

Range Keithley B changed to 20 nA

Range Keithley B changed to 200 pA

Range Keithley B changed to 20 nA

Range Keithley B changed to 200 pA

Range Keithley B changed to 20 nA

Range Keithley B changed to 200 pA

Range Keithley B changed to 20 nA

Range Keithley B changed to 200 nA

Range Keithley B changed to 200 pA

Range Keithley B changed to 20 nA

Range Keithley B changed to 200 pA

Range Keithley B changed to 20 nA

Range Keithley B changed to 200 pA

Range Keithley B changed to 20 nA

Range Keithley B changed to 200 pA

Range Keithley B changed to 20 nA

Range Keithley B changed to 200 pA

Range Keithley B changed to 20 nA

Instrument 2: AMMETER KEITHLEY 6517A A
Measure type: Current
range type: set range value
range value (ampere):  200 nA
Integration time:  set NPLC value
NPLC value: 10.000
Digital filter count: 2
Vsource: OFF
Output Voltage value: -0.000
Vsource range: 100 V
Trigger source: bus

Range Keithley A changed to 20 nA

Range Keithley A changed to 200 nA

Range Keithley A changed to 200 pA

Range Keithley A changed to 20 nA

Range Keithley A changed to 200 pA

Range Keithley A changed to 20 nA

Range Keithley A changed to 200 nA

Range Keithley A changed to 200 pA

Range Keithley A changed to 20 nA

Range Keithley A changed to 200 pA

Range Keithley A changed to 20 nA

Range Keithley A changed to 200 nA

Range Keithley A changed to 200 pA

Range Keithley A changed to 20 nA

Range Keithley A changed to 200 pA

Range Keithley A changed to 20 nA

Range Keithley A changed to 200 pA

Range Keithley A changed to 20 nA

Range Keithley A changed to 200 pA

Range Keithley A changed to 20 nA

Range Keithley A changed to 200 pA

Range Keithley A changed to 20 nA

Range Keithley A changed to 200 nA

Range Keithley A changed to 200 pA

Range Keithley A changed to 20 nA

Range Keithley A changed to 200 pA

Range Keithley A changed to 20 nA

Range Keithley A changed to 200 nA

Range Keithley A changed to 200 pA

Range Keithley A changed to 20 nA

Range Keithley A changed to 200 nA

Range Keithley A changed to 200 pA

Range Keithley A changed to 20 nA

Range Keithley A changed to 200 pA

Range Keithley A changed to 20 nA

Range Keithley A changed to 200 pA

Range Keithley A changed to 20 nA

Range Keithley A changed to 200 nA

Range Keithley A changed to 200 pA

Range Keithley A changed to 20 nA

Range Keithley A changed to 200 pA

Range Keithley A changed to 20 nA

Range Keithley A changed to 200 nA

Range Keithley A changed to 20 nA

Range Keithley A changed to 200 nA

Instrument 3: AMMETER KEITHLEY 6517A C 
Measure type: Current
range type: set range value
range value (ampere):  20 uA
Integration time:  set NPLC value
NPLC value: 10.000
Digital filter count: 2
Vsource: OFF
Output Voltage value: -0.000
Vsource range: 100 V
Trigger source: bus


Range Keithley C changed to 200 nA


________________________________________________________________________________

RelativeTime (msec)	Photon Energy	Var_1	Var_2	INSTR_1_Sample with Bias _(ampere ) 	INSTR_2_Monitor IM_(ampere)  	INSTR_3_Diode A3_(ampere)	I_BPM_sum (Amps)	
________________________________________________________________________________

1.36269000E+5	7.00007822E+1	0.00000000E+0	0.00000000E+0	-4.60000000E-13	6.10000000E-13	-1.31000000E-11	-1.89693593E-6
1.40559000E+5	7.09992392E+1	0.00000000E+0	0.00000000E+0	-1.40000000E-13	7.20000000E-13	-1.66000000E-11	-1.89008735E-6
1.44064000E+5	7.19999196E+1	0.00000000E+0	0.00000000E+0	3.00000000E-14	5.20000000E-13	-1.22000000E-11	-1.87966250E-6
1.47569000E+5	7.29996914E+1	0.00000000E+0	0.00000000E+0	-6.60000000E-13	6.30000000E-13	-1.18000000E-11	-1.87950157E-6
1.51029000E+5	7.39999849E+1	0.00000000E+0	0.00000000E+0	8.00000000E-14	7.00000000E-13	-1.29000000E-11	-1.89498686E-6
1.54536000E+5	7.49997972E+1	0.00000000E+0	0.00000000E+0	-3.80000000E-13	6.20000000E-13	-1.49000000E-11	-1.89339541E-6
1.57978000E+5	7.60003534E+1	0.00000000E+0	0.00000000E+0	-4.00000000E-13	6.30000000E-13	-1.14000000E-11	-1.87127612E-6
1.61405000E+5	7.70000335E+1	0.00000000E+0	0.00000000E+0	-7.00000000E-14	6.50000000E-13	-1.51000000E-11	-1.89067148E-6
1.64811000E+5	7.80002186E+1	0.00000000E+0	0.00000000E+0	-4.40000000E-13	6.70000000E-13	-1.82000000E-11	-1.89185761E-6
1.68333000E+5	7.89999103E+1	0.00000000E+0	0.00000000E+0	-1.80000000E-13	6.50000000E-13	-1.78000000E-11	-1.88714288E-6
1.71738000E+5	8.00000765E+1	0.00000000E+0	0.00000000E+0	-3.00000000E-13	6.40000000E-13	-1.35000000E-11	-1.87388979E-6
1.75235000E+5	8.09997857E+1	0.00000000E+0	0.00000000E+0	-4.10000000E-13	6.60000000E-13	-1.45000000E-11	-1.87830649E-6
1.78638000E+5	8.19999755E+1	0.00000000E+0	0.00000000E+0	-1.60000000E-13	6.00000000E-13	-1.61000000E-11	-1.87069796E-6
1.81993000E+5	8.29992397E+1	0.00000000E+0	0.00000000E+0	-5.90000000E-13	5.60000000E-13	-1.19000000E-11	-1.90638326E-6
1.85479000E+5	8.40003859E+1	0.00000000E+0	0.00000000E+0	-6.10000000E-13	6.30000000E-13	-1.72000000E-11	-1.88387059E-6
1.88717000E+5	8.49997560E+1	0.00000000E+0	0.00000000E+0	-1.10000000E-13	6.10000000E-13	-1.56000000E-11	-1.88417457E-6
1.92127000E+5	8.60001584E+1	0.00000000E+0	0.00000000E+0	6.00000000E-14	6.90000000E-13	-1.59000000E-11	-1.89650081E-6
1.95436000E+5	8.69999222E+1	0.00000000E+0	0.00000000E+0	-0.00000000E+0	6.10000000E-13	-1.29000000E-11	-1.88584350E-6
1.99590000E+5	8.80001557E+1	0.00000000E+0	0.00000000E+0	4.00000000E-14	6.50000000E-13	-1.54000000E-11	-1.89433716E-6
2.02932000E+5	8.90000805E+1	0.00000000E+0	0.00000000E+0	-1.60000000E-13	6.40000000E-13	-1.96000000E-11	-1.87568091E-6
2.06333000E+5	9.00000001E+1	0.00000000E+0	0.00000000E+0	-3.00000000E-14	6.60000000E-13	-1.64000000E-11	-1.89240001E-6
2.09646000E+5	9.09993209E+1	0.00000000E+0	0.00000000E+0	-2.70000000E-13	5.90000000E-13	-1.69000000E-11	-1.88402854E-6
2.12956000E+5	9.20005264E+1	0.00000000E+0	0.00000000E+0	-7.00000000E-14	7.30000000E-13	-1.73000000E-11	-1.90273844E-6
2.16224000E+5	9.29998196E+1	0.00000000E+0	0.00000000E+0	6.00000000E-14	5.10000000E-13	-1.42000000E-11	-1.88160561E-6
2.19551000E+5	9.39998123E+1	0.00000000E+0	0.00000000E+0	-5.00000000E-14	5.30000000E-13	-1.47000000E-11	-1.87481664E-6
2.22853000E+5	9.49998425E+1	0.00000000E+0	0.00000000E+0	-3.00000000E-13	5.30000000E-13	-1.04000000E-11	-1.88514613E-6
2.26067000E+5	9.59986739E+1	0.00000000E+0	0.00000000E+0	-1.60000000E-13	5.80000000E-13	-1.30000000E-11	-1.90199040E-6
2.29214000E+5	9.70011147E+1	0.00000000E+0	0.00000000E+0	-1.40000000E-13	5.20000000E-13	-1.19000000E-11	-1.88678228E-6
2.32443000E+5	9.79999137E+1	0.00000000E+0	0.00000000E+0	-8.00000000E-14	5.90000000E-13	-1.46000000E-11	-1.90656506E-6
2.35590000E+5	9.89992128E+1	0.00000000E+0	0.00000000E+0	-1.90000000E-13	6.60000000E-13	-1.50000000E-11	-1.88348912E-6
2.38670000E+5	1.00000378E+2	0.00000000E+0	0.00000000E+0	-6.00000000E-14	6.10000000E-13	-1.32000000E-11	-1.87762402E-6
2.41924000E+5	1.00999882E+2	0.00000000E+0	0.00000000E+0	-4.20000000E-13	6.90000000E-13	-1.52000000E-11	-1.87586270E-6
2.45126000E+5	1.02000088E+2	0.00000000E+0	0.00000000E+0	-7.00000000E-14	6.20000000E-13	-1.42000000E-11	-1.87585078E-6
