G:\BEAR_storage\User_Experiments\20220317_arneodo\file(1)_Region 4__0084.txt
Ring Energy (GeV): 2
Lifetime (hours): 15.5645
Scan beginning: 3/22/2022	12:25:16 AM
Ring current (mA): 309.21
Source position: x (mm): 0.007 x' (mrad): -0 y (mm): -0.001 y' (mrad): 0.001
Scan end: 3/22/2022	12:49:00 AM
Ring current (mA): 308.23
Source position: x (mm): 0.006 x' (mrad): 0.001 y (mm): 0.001 y' (mrad): -0

SCAN TYPE: PHOTON ENERGY VS VAR_1 VS VAR_2

FILE INFO: FILE INFO:

SCAN PARAMETERS
waiting time (ms): 1000
Number of scans: 1
Current scan number: 1
DARK OFF 
PREDARK OFF 

SCAN PARAMETERS
Regions configuration: 
number of regions: 7
Mirror grating scan: on
Timed acquisition: off
Region 1:
Initial energy (eV): 3.000000
Final energy (eV): 4.500000
Delta energy (eV): 0.100000
Deviation angle choice: Degrees: 
Deviation angle (°): NaN
B270 window
GNIM channel
range keithley B 200 pA
range keithley C 200 pA
range keithley A 200 pA
Var_1: PsiC 0.000000
Var_2: PhiM0.000000
Bias CEM (V): 0.000000
Bias Keithley B (V): -30.000000
Name region: 
Region 2:
Initial energy (eV): 4.000000
Final energy (eV): 8.000000
Delta energy (eV): 0.100000
Deviation angle choice: Degrees: 
Deviation angle (°): NaN
SiO2 window
GNIM channel
range keithley B 200 pA
range keithley C 200 pA
range keithley A 200 pA
Var_1: PsiC 0.000000
Var_2: PhiM0.000000
Bias CEM (V): 0.000000
Bias Keithley B (V): -30.000000
Name region: 
Region 3:
Initial energy (eV): 7.000000
Final energy (eV): 12.000000
Delta energy (eV): 0.100000
Deviation angle choice: Degrees: 
Deviation angle (°): NaN
filter LiF window
GNIM channel
range keithley B 200 pA
range keithley C 200 pA
range keithley A 200 pA
Var_1: PsiC 0.000000
Var_2: PhiM0.000000
Bias CEM (V): 0.000000
Bias Keithley B (V): -30.000000
Name region: 
Region 4:
Initial energy (eV): 11.000000
Final energy (eV): 18.000000
Delta energy (eV): 0.100000
Deviation angle choice: Degrees: 
Deviation angle (°): NaN
In filter
GNIM channel
range keithley B 200 pA
range keithley C 200 pA
range keithley A 200 pA
Var_1: PsiC 0.000000
Var_2: PhiM0.000000
Bias CEM (V): 0.000000
Bias Keithley B (V): -30.000000
Name region: 
Region 5:
Initial energy (eV): 15.000000
Final energy (eV): 25.000000
Delta energy (eV): 0.100000
Deviation angle choice: Degrees: 
Deviation angle (°): NaN
Sn filter
GNIM channel
range keithley B 200 pA
range keithley C 200 pA
range keithley A 200 pA
Var_1: PsiC 0.000000
Var_2: PhiM0.000000
Bias CEM (V): 0.000000
Bias Keithley B (V): -30.000000
Name region: 
Region 6:
Initial energy (eV): 23.000000
Final energy (eV): 45.000000
Delta energy (eV): 0.100000
Deviation angle choice: Degrees: 
Deviation angle (°): NaN
Full Beam
GNIM channel
range keithley B 20 nA
range keithley C 200 pA
range keithley A 20 nA
Var_1: PsiC 0.000000
Var_2: PhiM0.000000
Bias CEM (V): 0.000000
Bias Keithley B (V): -30.000000
Name region: 
Region 7:
Initial energy (eV): 23.000000
Final energy (eV): 45.000000
Delta energy (eV): 0.100000
Deviation angle choice: Degrees: 
Deviation angle (°): NaN
Al filter
GNIM channel
range keithley B 20 nA
range keithley C 200 pA
range keithley A 20 nA
Var_1: PsiC 0.000000
Var_2: PhiM0.000000
Bias CEM (V): 0.000000
Bias Keithley B (V): -30.000000
Name region: 

BEAR MONOCHROMATOR CONFIGURATION: 
Current Grating Position:     200056.80
Current Mirror Position: 10000.0
Current Grating: GNIM
P2 phiz position:  -0.0195
Mono axis position: 73.5000
Current Photon Energy (eV): 45.000
Current Deviation Angle: 29.905
Vertical Exit Slits (um): 100.000
Exit slit y axis position: 1.3625
Horizontal Exit Slits (um):  889.156
Exit slit z axis position: 1.9229
Mitutoyo position (mm): 

Dose on sample (mJ/cm^2): NaN

ENERGY CALIBRATION:
offset grating G1200: yes
Delta 0 order G1200:  -1100.0
offset grating G1800: not
Delta 0 order G1800:  0.0
offset grating GNIM: not
Delta 0 order GNIM:  0.0
ZERO ORDER POSITIONS:
Grating G1200: Mirror position:  4938.0
Grating position: -105355.0
Grating G1800: 
Mirror position:  4938.0
Grating position: -106345.0
Grating GNIM: 
Mirror position:  10000.0
Grating position: 227300.0

Initial filter: Al filter

EXPERIMENTAL CHAMBER CONFIGURATION: 
PsiC (deg):   -0.000186
Phi Analyzer (degrees): 89.993255
Theta Manipulator (degrees): -44.000040
Theta Analyzer (degrees): -135.001468
PhiM (degrees): -0.003077
XM (mm): 2.500900
YM (mm): 9.917125
ZM (mm): (Warning: for kinetic energy scans, 
this parameter is given in the scan settings) 
-15.001363
TiltM (°): 0.000138

ELECTRON ANALYZER CONFIGURATION: 
Current Kinetik energy (eV): 35.0
Mode: DE = COST
Pass Energy (eV):  100.000
CEM: ON
Bias Front-Back CEM (V): 3499.698
Bias Back-Collector CEM (V): 100.874
Bias Retard-Front CEM: 100.104COIL VALUES
Ix (amps):2.820
Iy (amps): 6.789
Iz (amps): 37.403

POLARIZATION SELECTOR CONFIGURATION:
Psi1 (rad): -0.001665535
Psi2 (rad): 0.001417093
Z min position (mm): 46.599650
DZ position (mm): 18.599100
Zmin 0 (mm): 65.700000
DZ0 (mm): 54.000000

BEAM SELECTOR CONFIGURATION:
Zmin position (mm): NaN
DZ position (mm): NaN
Y+ position (mm): NaN
Y- position (mm): NaN

CHANNEL ELECTRON MULTIPLIER CONFIGURATION:
CEM configured: OFF
Bias CEM: 0.000000

FLUORESCENCE DETECTOR CONFIGURATION:
Not configured

LUMINESCENCE MONOCHROMATOR CONFIGURATION:
Optical fiber position (mm): 0.000000
Optical fiber Switch inside: ON
Optical fiber Switch outside: ON
Monochromator wavelength (A): 0.000000
Limit Switches: ON

I0 MONITOR PARAMETERS:
I0 detector position(mm): NaN
Lower switch: OFF
Upper switch: OFF
Valve status:unread

PRESSURE PARAMETERS:
Monitor chamber pressure (mbar): 9.041e-10
Experimental chamber pressure -ION GAUGE-(mbar): 0.000000E+0

XMCD PARAMETERS:
Xmcd OFF
Xmcd Direction -
Xmcd current (A): 0.000000

Gated scan off

Instrument 1: AMMETER KEITHLEY 6517A B
Measure type: Current
range type: set range value
range value (ampere):  200 pA
Integration time:  set NPLC value
NPLC value: 10.000
Digital filter count: 2
SAMPLE BIAS (V): -30.000
Vsource: ON
Output Voltage value: 30.000
Vsource range: 1000 V

Range Keithley B changed to 20 nA

Range Keithley B changed to 200 pA

Range Keithley B changed to 20 nA

Range Keithley B changed to 200 pA

Keithley B Bias (V) changed to: 0.000000

Range Keithley B changed to 20 nA

Keithley B Bias (V) changed to: -30.000000

Range Keithley B changed to 200 pA

Range Keithley B changed to 20 nA

Range Keithley B changed to 200 pA

Range Keithley B changed to 20 nA

Range Keithley B changed to 200 pA

Range Keithley B changed to 20 nA

Range Keithley B changed to 200 pA

Keithley B Bias (V) changed to: 0.000000

Keithley B Bias (V) changed to: -30.000000

Range Keithley B changed to 20 nA

Range Keithley B changed to 200 pA

Range Keithley B changed to 20 nA

Range Keithley B changed to 200 pA

Range Keithley B changed to 20 nA

Range Keithley B changed to 200 pA

Instrument 2: AMMETER KEITHLEY 6517A A
Measure type: Current
range type: set range value
range value (ampere):  200 pA
Integration time:  set NPLC value
NPLC value: 10.000
Digital filter count: 2
Vsource: OFF
Output Voltage value: -0.000
Vsource range: 100 V
Trigger source: bus

Range Keithley A changed to 20 nA

Range Keithley A changed to 200 nA

Range Keithley A changed to 200 pA

Range Keithley A changed to 20 nA

Range Keithley A changed to 200 pA

Range Keithley A changed to 20 nA

Range Keithley A changed to 200 nA

Range Keithley A changed to 200 pA

Range Keithley A changed to 20 nA

Range Keithley A changed to 200 pA

Range Keithley A changed to 20 nA

Range Keithley A changed to 200 nA

Range Keithley A changed to 200 pA

Range Keithley A changed to 20 nA

Range Keithley A changed to 200 pA

Range Keithley A changed to 20 nA

Range Keithley A changed to 200 pA

Range Keithley A changed to 20 nA

Range Keithley A changed to 200 pA

Range Keithley A changed to 20 nA

Range Keithley A changed to 200 pA

Range Keithley A changed to 20 nA

Range Keithley A changed to 200 pA

Instrument 3: COUNTER ORTEC 996Integration time (sec): 1.000


Range Keithley C changed to 200 nA


Range Keithley C changed to 2 uA


Range Keithley C changed to 200 nA


Range Keithley C changed to 2 uA


Range Keithley C changed to 200 pA


________________________________________________________________________________

RelativeTime (msec)	Photon Energy	Var_1	Var_2	INSTR_1_Sample with Bias _(ampere ) 	INSTR_2_Monitor IM_(ampere)  	INSTR_3_Ortec 996 counts_(counts)	I_BPM_sum (Amps)	
________________________________________________________________________________

9.63544000E+5	1.10000336E+1	0.00000000E+0	0.00000000E+0	2.69700000E-13	8.27000000E-14	0.00000000E+0	8.98017305E-5
9.71077000E+5	1.10999233E+1	0.00000000E+0	0.00000000E+0	2.69800000E-13	8.21000000E-14	0.00000000E+0	8.97717792E-5
9.77624000E+5	1.11999216E+1	0.00000000E+0	0.00000000E+0	2.74100000E-13	8.64000000E-14	0.00000000E+0	8.98562568E-5
9.84349000E+5	1.13000474E+1	0.00000000E+0	0.00000000E+0	2.85000000E-13	1.03800000E-13	0.00000000E+0	8.95940917E-5
9.90940000E+5	1.13999510E+1	0.00000000E+0	0.00000000E+0	2.78300000E-13	1.37600000E-13	1.00000000E+0	8.96464455E-5
9.97546000E+5	1.15000481E+1	0.00000000E+0	0.00000000E+0	2.90800000E-13	2.01700000E-13	0.00000000E+0	8.97407907E-5
1.00414000E+6	1.15999941E+1	0.00000000E+0	0.00000000E+0	3.07500000E-13	2.88500000E-13	0.00000000E+0	8.97541511E-5
1.01070600E+6	1.16999809E+1	0.00000000E+0	0.00000000E+0	3.24000000E-13	3.43700000E-13	0.00000000E+0	8.98117143E-5
1.01725700E+6	1.18000450E+1	0.00000000E+0	0.00000000E+0	3.24700000E-13	3.79300000E-13	0.00000000E+0	8.99560529E-5
1.02389600E+6	1.18999838E+1	0.00000000E+0	0.00000000E+0	3.34300000E-13	4.33500000E-13	0.00000000E+0	8.95661014E-5
1.03049100E+6	1.20000412E+1	0.00000000E+0	0.00000000E+0	3.58300000E-13	5.33900000E-13	0.00000000E+0	8.98852455E-5
1.03703900E+6	1.20999648E+1	0.00000000E+0	0.00000000E+0	3.51900000E-13	6.72500000E-13	0.00000000E+0	8.98885298E-5
1.04343200E+6	1.22000095E+1	0.00000000E+0	0.00000000E+0	3.88500000E-13	8.81400000E-13	0.00000000E+0	8.96918136E-5
1.04984800E+6	1.23000162E+1	0.00000000E+0	0.00000000E+0	4.08000000E-13	1.09000000E-12	2.00000000E+0	8.94649016E-5
1.05629200E+6	1.24000047E+1	0.00000000E+0	0.00000000E+0	4.24700000E-13	1.22080000E-12	1.00000000E+0	8.96842646E-5
1.06270700E+6	1.24999978E+1	0.00000000E+0	0.00000000E+0	4.19600000E-13	1.23470000E-12	0.00000000E+0	8.96442461E-5
1.06924000E+6	1.26000078E+1	0.00000000E+0	0.00000000E+0	4.18400000E-13	1.20310000E-12	0.00000000E+0	8.96449375E-5
1.07567100E+6	1.27000098E+1	0.00000000E+0	0.00000000E+0	4.06500000E-13	1.15630000E-12	1.00000000E+0	8.96370995E-5
1.08197300E+6	1.27999248E+1	0.00000000E+0	0.00000000E+0	4.20900000E-13	1.14070000E-12	2.00000000E+0	8.93006103E-5
1.08829900E+6	1.29000645E+1	0.00000000E+0	0.00000000E+0	4.15800000E-13	1.18090000E-12	3.00000000E+0	8.96661359E-5
1.09459300E+6	1.29999465E+1	0.00000000E+0	0.00000000E+0	4.30700000E-13	1.28350000E-12	4.00000000E+0	8.96920400E-5
1.10093100E+6	1.31000269E+1	0.00000000E+0	0.00000000E+0	4.52600000E-13	1.45990000E-12	5.00000000E+0	8.92413186E-5
1.10721500E+6	1.32000513E+1	0.00000000E+0	0.00000000E+0	4.80400000E-13	1.69840000E-12	4.00000000E+0	8.93487530E-5
1.11348500E+6	1.33000247E+1	0.00000000E+0	0.00000000E+0	4.97900000E-13	1.95960000E-12	4.00000000E+0	8.98303169E-5
1.11983500E+6	1.34000272E+1	0.00000000E+0	0.00000000E+0	5.10800000E-13	2.21780000E-12	6.00000000E+0	8.93708723E-5
1.12615000E+6	1.34999663E+1	0.00000000E+0	0.00000000E+0	5.38100000E-13	2.40940000E-12	7.00000000E+0	8.96727043E-5
1.13246800E+6	1.36000015E+1	0.00000000E+0	0.00000000E+0	5.42100000E-13	2.51340000E-12	9.00000000E+0	8.96120327E-5
1.13878300E+6	1.37000119E+1	0.00000000E+0	0.00000000E+0	5.49500000E-13	2.53530000E-12	8.00000000E+0	8.99530339E-5
1.14508500E+6	1.37999945E+1	0.00000000E+0	0.00000000E+0	5.38700000E-13	2.51390000E-12	1.30000000E+1	8.92731952E-5
1.15137100E+6	1.39000103E+1	0.00000000E+0	0.00000000E+0	5.42400000E-13	2.48900000E-12	1.30000000E+1	8.94586014E-5
1.15763600E+6	1.39999968E+1	0.00000000E+0	0.00000000E+0	5.38200000E-13	2.48930000E-12	6.00000000E+0	8.94034492E-5
1.16395000E+6	1.41000350E+1	0.00000000E+0	0.00000000E+0	5.49700000E-13	2.54050000E-12	8.00000000E+0	8.94211369E-5
1.17023500E+6	1.42000136E+1	0.00000000E+0	0.00000000E+0	5.58800000E-13	2.64930000E-12	9.00000000E+0	8.95438152E-5
1.17654400E+6	1.42999831E+1	0.00000000E+0	0.00000000E+0	5.79100000E-13	2.82190000E-12	4.00000000E+0	8.94683736E-5
1.18282700E+6	1.43999805E+1	0.00000000E+0	0.00000000E+0	5.95300000E-13	3.05700000E-12	1.00000000E+1	8.91915845E-5
1.18898700E+6	1.44999775E+1	0.00000000E+0	0.00000000E+0	6.23300000E-13	3.33880000E-12	1.80000000E+1	9.01849795E-5
1.19523800E+6	1.46000491E+1	0.00000000E+0	0.00000000E+0	6.47000000E-13	3.61280000E-12	1.80000000E+1	8.99162012E-5
1.20149900E+6	1.46999753E+1	0.00000000E+0	0.00000000E+0	6.61200000E-13	3.84430000E-12	2.80000000E+1	8.99637687E-5
1.20775000E+6	1.48000258E+1	0.00000000E+0	0.00000000E+0	7.04200000E-13	4.01240000E-12	2.40000000E+1	8.98788172E-5
1.21391400E+6	1.48999961E+1	0.00000000E+0	0.00000000E+0	6.87800000E-13	4.07500000E-12	2.10000000E+1	8.99366754E-5
1.22020200E+6	1.50000206E+1	0.00000000E+0	0.00000000E+0	6.98800000E-13	4.08730000E-12	2.50000000E+1	8.95949232E-5
1.22635500E+6	1.50999625E+1	0.00000000E+0	0.00000000E+0	7.01500000E-13	4.05850000E-12	2.90000000E+1	8.93780398E-5
1.23228800E+6	1.51999989E+1	0.00000000E+0	0.00000000E+0	6.92500000E-13	4.02390000E-12	2.50000000E+1	8.96508860E-5
1.23913200E+6	1.53000115E+1	0.00000000E+0	0.00000000E+0	6.81200000E-13	4.01680000E-12	3.10000000E+1	8.97135901E-5
1.24511500E+6	1.54000310E+1	0.00000000E+0	0.00000000E+0	6.91400000E-13	4.05710000E-12	3.00000000E+1	8.96951931E-5
1.25125500E+6	1.54999926E+1	0.00000000E+0	0.00000000E+0	7.18000000E-13	4.16240000E-12	2.50000000E+1	8.96745252E-5
1.25732600E+6	1.55999676E+1	0.00000000E+0	0.00000000E+0	7.21200000E-13	4.29520000E-12	3.00000000E+1	8.95883518E-5
1.26329600E+6	1.57000321E+1	0.00000000E+0	0.00000000E+0	7.21800000E-13	4.44910000E-12	2.80000000E+1	8.97228199E-5
1.26945200E+6	1.58000218E+1	0.00000000E+0	0.00000000E+0	7.40400000E-13	4.56810000E-12	2.10000000E+1	8.97372472E-5
1.27559600E+6	1.58999711E+1	0.00000000E+0	0.00000000E+0	7.51700000E-13	4.61860000E-12	2.50000000E+1	8.98071843E-5
1.28152100E+6	1.60000006E+1	0.00000000E+0	0.00000000E+0	7.35500000E-13	4.53420000E-12	2.90000000E+1	8.97148150E-5
1.28768200E+6	1.61000256E+1	0.00000000E+0	0.00000000E+0	7.00800000E-13	4.30430000E-12	1.40000000E+1	8.97080588E-5
1.29364400E+6	1.62000224E+1	0.00000000E+0	0.00000000E+0	6.78100000E-13	3.96200000E-12	2.00000000E+1	8.94054728E-5
1.29984900E+6	1.62999665E+1	0.00000000E+0	0.00000000E+0	6.33700000E-13	3.44980000E-12	1.80000000E+1	8.96876412E-5
1.30594500E+6	1.64000304E+1	0.00000000E+0	0.00000000E+0	5.48100000E-13	2.57420000E-12	1.80000000E+1	8.97600817E-5
1.31175300E+6	1.64999066E+1	0.00000000E+0	0.00000000E+0	4.28200000E-13	1.25280000E-12	4.00000000E+0	8.95098376E-5
1.31789200E+6	1.66001061E+1	0.00000000E+0	0.00000000E+0	3.38300000E-13	4.43000000E-13	3.00000000E+0	8.93759774E-5
1.32407200E+6	1.66999802E+1	0.00000000E+0	0.00000000E+0	3.10600000E-13	2.29500000E-13	2.00000000E+0	8.98235965E-5
1.33007900E+6	1.68000024E+1	0.00000000E+0	0.00000000E+0	3.04900000E-13	1.79300000E-13	5.00000000E+0	8.95396190E-5
1.33616300E+6	1.68999696E+1	0.00000000E+0	0.00000000E+0	3.00400000E-13	1.62500000E-13	1.00000000E+0	8.95519572E-5
1.34198800E+6	1.69999292E+1	0.00000000E+0	0.00000000E+0	3.14900000E-13	1.66100000E-13	6.00000000E+0	8.95816165E-5
1.34809500E+6	1.71001225E+1	0.00000000E+0	0.00000000E+0	3.08900000E-13	1.59100000E-13	2.00000000E+0	8.97294449E-5
1.35411000E+6	1.71998600E+1	0.00000000E+0	0.00000000E+0	3.07300000E-13	1.65900000E-13	1.00000000E+0	8.95875859E-5
1.35991700E+6	1.73001318E+1	0.00000000E+0	0.00000000E+0	3.14400000E-13	1.57000000E-13	3.00000000E+0	8.96307754E-5
1.36597500E+6	1.73999467E+1	0.00000000E+0	0.00000000E+0	2.96500000E-13	1.30800000E-13	1.00000000E+0	8.96392661E-5
1.37209300E+6	1.75000191E+1	0.00000000E+0	0.00000000E+0	3.00800000E-13	1.18900000E-13	3.00000000E+0	8.94173788E-5
1.37797800E+6	1.76000595E+1	0.00000000E+0	0.00000000E+0	3.01400000E-13	1.13700000E-13	0.00000000E+0	8.95890879E-5
1.38412600E+6	1.76999959E+1	0.00000000E+0	0.00000000E+0	3.02200000E-13	1.13800000E-13	0.00000000E+0	8.98344087E-5
1.39003700E+6	1.78000380E+1	0.00000000E+0	0.00000000E+0	3.07000000E-13	1.16000000E-13	0.00000000E+0	8.96682459E-5
1.39612300E+6	1.78999868E+1	0.00000000E+0	0.00000000E+0	3.27700000E-13	1.29100000E-13	1.00000000E+0	8.94039082E-5
1.40212700E+6	1.80000318E+1	0.00000000E+0	0.00000000E+0	3.15600000E-13	1.15000000E-13	0.00000000E+0	8.95320433E-5
