G:\BEAR_storage\User_Experiments\20220317_arneodo\file(1)_Region 2__0045.txt
Ring Energy (GeV): 2
Lifetime (hours): 16.3395
Scan beginning: 3/18/2022	9:59:24 PM
Ring current (mA): 272.24
Source position: x (mm): -0.004 x' (mrad): 0.006 y (mm): 0.006 y' (mrad): -0.002
Scan end: 3/18/2022	10:03:44 PM
Ring current (mA): 271.03
Source position: x (mm): -0.003 x' (mrad): 0.005 y (mm): 0.004 y' (mrad): -0.003

SCAN TYPE: PHOTON ENERGY VS VAR_1 VS VAR_2

FILE INFO: FILE INFO:

SCAN PARAMETERS
waiting time (ms): 1000
Number of scans: 1
Current scan number: 1
DARK OFF 
PREDARK OFF 

SCAN PARAMETERS
Regions configuration: 
number of regions: 7
Mirror grating scan: on
Timed acquisition: off
Region 1:
Initial energy (eV): 40.000000
Final energy (eV): 72.000000
Delta energy (eV): 1.000000
Deviation angle choice: Higher order rejection
Deviation angle (°): NaN
Al filter
G1200 channel
range keithley B 20 nA
range keithley C 2 uA
range keithley A 2 uA
Var_1: PsiC 0.000000
Var_2: PhiM0.000000
Bias CEM (V): 0.000000
Bias Keithley B (V): -30.000000
Name region: 
Region 2:
Initial energy (eV): 70.000000
Final energy (eV): 102.000000
Delta energy (eV): 1.000000
Deviation angle choice: Higher order rejection
Deviation angle (°): NaN
Si filter
G1200 channel
range keithley B 20 nA
range keithley C 2 uA
range keithley A 20 nA
Var_1: PsiC 0.000000
Var_2: PhiM0.000000
Bias CEM (V): 0.000000
Bias Keithley B (V): -30.000000
Name region: 
Region 3:
Initial energy (eV): 98.000000
Final energy (eV): 260.000000
Delta energy (eV): 1.000000
Deviation angle choice: Higher order rejection
Deviation angle (°): NaN
Full Beam
G1200 channel
range keithley B 20 nA
range keithley C 200 uA
range keithley A 200 nA
Var_1: PsiC 0.000000
Var_2: PhiM0.000000
Bias CEM (V): 0.000000
Bias Keithley B (V): -30.000000
Name region: 
Region 4:
Initial energy (eV): 255.000000
Final energy (eV): 320.000000
Delta energy (eV): 1.000000
Deviation angle choice: Higher order rejection
Deviation angle (°): NaN
filter Ag 0.6 um
G1200 channel
range keithley B 200 pA
range keithley C 2 uA
range keithley A 200 pA
Var_1: PsiC 0.000000
Var_2: PhiM0.000000
Bias CEM (V): 0.000000
Bias Keithley B (V): -30.000000
Name region: 
Region 5:
Initial energy (eV): 255.000000
Final energy (eV): 320.000000
Delta energy (eV): 1.000000
Deviation angle choice: Higher order rejection
Deviation angle (°): NaN
Full Beam
G1200 channel
range keithley B 200 pA
range keithley C 2 uA
range keithley A 20 nA
Var_1: PsiC 0.000000
Var_2: PhiM0.000000
Bias CEM (V): 0.000000
Bias Keithley B (V): -30.000000
Name region: 
Region 6:
Initial energy (eV): 315.000000
Final energy (eV): 1200.000000
Delta energy (eV): 5.000000
Deviation angle choice: Higher order rejection
Deviation angle (°): NaN
Full Beam
G1200 channel
range keithley B 20 nA
range keithley C 2 uA
range keithley A 20 nA
Var_1: PsiC 0.000000
Var_2: PhiM0.000000
Bias CEM (V): 0.000000
Bias Keithley B (V): -30.000000
Name region: 
Region 7:
Initial energy (eV): 1190.000000
Final energy (eV): 1500.000000
Delta energy (eV): 5.000000
Deviation angle choice: Higher order rejection
Deviation angle (°): NaN
filter Ag 0.6 um
G1200 channel
range keithley B 200 pA
range keithley C 2 uA
range keithley A 200 pA
Var_1: PsiC 0.000000
Var_2: PhiM0.000000
Bias CEM (V): 0.000000
Bias Keithley B (V): -30.000000
Name region: 

BEAR MONOCHROMATOR CONFIGURATION: 
Current Grating Position:     -31403.90
Current Mirror Position: 104329.5
Current Grating: G1200
P2 phiz position:  0.0000
Mono axis position: 25.0000
Current Photon Energy (eV): 270.002
Current Deviation Angle: 162.400
Vertical Exit Slits (um): 450.000
Exit slit y axis position: 2.2375
Horizontal Exit Slits (um):  889.156
Exit slit z axis position: 1.9229
Mitutoyo position (mm): 

Dose on sample (mJ/cm^2): NaN

ENERGY CALIBRATION:
offset grating G1200: yes
Delta 0 order G1200:  -800.0
offset grating G1800: not
Delta 0 order G1800:  0.0
offset grating GNIM: not
Delta 0 order GNIM:  0.0
ZERO ORDER POSITIONS:
Grating G1200: Mirror position:  4938.0
Grating position: -105355.0
Grating G1800: 
Mirror position:  4938.0
Grating position: -106345.0
Grating GNIM: 
Mirror position:  10000.0
Grating position: 227300.0

Initial filter: Full Beam

EXPERIMENTAL CHAMBER CONFIGURATION: 
PsiC (deg):   -0.000186
Phi Analyzer (degrees): 89.992308
Theta Manipulator (degrees): -44.000040
Theta Analyzer (degrees): -135.001468
PhiM (degrees): -0.004103
XM (mm): 0.000713
YM (mm): 19.932987
ZM (mm): (Warning: for kinetic energy scans, 
this parameter is given in the scan settings) 
-6.601438
TiltM (°): 0.000138

ELECTRON ANALYZER CONFIGURATION: 
Current Kinetik energy (eV): 35.0
Mode: DE = COST
Pass Energy (eV):  50.000
CEM: ON
Bias Front-Back CEM (V): 3499.561
Bias Back-Collector CEM (V): 100.874
Bias Retard-Front CEM: 100.087COIL VALUES
Ix (amps):2.820
Iy (amps): 6.789
Iz (amps): 37.337

POLARIZATION SELECTOR CONFIGURATION:
Psi1 (rad): -0.001665535
Psi2 (rad): 0.001417093
Z min position (mm): 46.599650
DZ position (mm): 18.599100
Zmin 0 (mm): 66.500000
DZ0 (mm): 53.000000

BEAM SELECTOR CONFIGURATION:
Zmin position (mm): NaN
DZ position (mm): NaN
Y+ position (mm): NaN
Y- position (mm): NaN

CHANNEL ELECTRON MULTIPLIER CONFIGURATION:
CEM configured: OFF
Bias CEM: 0.000000

FLUORESCENCE DETECTOR CONFIGURATION:
Not configured

LUMINESCENCE MONOCHROMATOR CONFIGURATION:
Optical fiber position (mm): 0.000000
Optical fiber Switch inside: OFF
Optical fiber Switch outside: ON
Monochromator wavelength (A): 0.000000
Limit Switches: ON

I0 MONITOR PARAMETERS:
I0 detector position(mm): -0.000000E+0
Lower switch: OFF
Upper switch: OFF
Valve status:open

PRESSURE PARAMETERS:
Monitor chamber pressure (mbar): 8.911e-10
Experimental chamber pressure -ION GAUGE-(mbar): 0.000000E+0

XMCD PARAMETERS:
Xmcd OFF
Xmcd Direction -
Xmcd current (A): 0.000000

Gated scan off

Instrument 1: AMMETER KEITHLEY 6517A B
Measure type: Current
range type: set range value
range value (ampere):  200 pA
Integration time:  set NPLC value
NPLC value: 10.000
Digital filter count: 2
SAMPLE BIAS (V): -30.000
Vsource: ON
Output Voltage value: 30.000
Vsource range: 1000 V

Range Keithley B changed to 20 nA

Range Keithley B changed to 200 pA

Range Keithley B changed to 20 nA

Range Keithley B changed to 200 pA

Range Keithley B changed to 20 nA

Range Keithley B changed to 200 pA

Range Keithley B changed to 20 nA

Range Keithley B changed to 200 nA

Range Keithley B changed to 200 pA

Range Keithley B changed to 20 nA

Range Keithley B changed to 200 pA

Range Keithley B changed to 20 nA

Range Keithley B changed to 200 pA

Range Keithley B changed to 20 nA

Range Keithley B changed to 200 pA

Range Keithley B changed to 20 nA

Range Keithley B changed to 200 pA

Range Keithley B changed to 20 nA

Range Keithley B changed to 200 pA

Range Keithley B changed to 20 nA

Range Keithley B changed to 200 pA

Range Keithley B changed to 20 nA

Instrument 2: AMMETER KEITHLEY 6517A A
Measure type: Current
range type: set range value
range value (ampere):  200 nA
Integration time:  set NPLC value
NPLC value: 10.000
Digital filter count: 2
Vsource: OFF
Output Voltage value: -0.000
Vsource range: 100 V
Trigger source: bus

Range Keithley A changed to 20 nA

Range Keithley A changed to 200 nA

Range Keithley A changed to 200 pA

Range Keithley A changed to 20 nA

Range Keithley A changed to 200 pA

Range Keithley A changed to 20 nA

Range Keithley A changed to 200 nA

Range Keithley A changed to 200 pA

Range Keithley A changed to 20 nA

Range Keithley A changed to 200 pA

Range Keithley A changed to 20 nA

Range Keithley A changed to 200 nA

Range Keithley A changed to 200 pA

Range Keithley A changed to 20 nA

Range Keithley A changed to 200 pA

Range Keithley A changed to 20 nA

Range Keithley A changed to 200 pA

Range Keithley A changed to 20 nA

Range Keithley A changed to 200 pA

Range Keithley A changed to 20 nA

Range Keithley A changed to 200 pA

Range Keithley A changed to 20 nA

Range Keithley A changed to 200 nA

Range Keithley A changed to 200 pA

Range Keithley A changed to 20 nA

Range Keithley A changed to 200 pA

Range Keithley A changed to 20 nA

Range Keithley A changed to 200 nA

Range Keithley A changed to 200 pA

Range Keithley A changed to 20 nA

Range Keithley A changed to 200 nA

Range Keithley A changed to 200 pA

Range Keithley A changed to 20 nA

Range Keithley A changed to 200 pA

Range Keithley A changed to 20 nA

Range Keithley A changed to 200 pA

Range Keithley A changed to 20 nA

Range Keithley A changed to 200 nA

Range Keithley A changed to 200 pA

Range Keithley A changed to 20 nA

Range Keithley A changed to 200 pA

Range Keithley A changed to 20 nA

Range Keithley A changed to 200 nA

Range Keithley A changed to 20 nA

Range Keithley A changed to 200 nA

Range Keithley A changed to 200 pA

Range Keithley A changed to 20 nA

Range Keithley A changed to 200 nA

Range Keithley A changed to 2 uA

Range Keithley A changed to 20 nA

Range Keithley A changed to 200 nA

Range Keithley A changed to 2 uA

Range Keithley A changed to 20 nA

Range Keithley A changed to 200 nA

Range Keithley A changed to 200 pA

Range Keithley A changed to 2 uA

Range Keithley A changed to 20 nA

Range Keithley A changed to 200 nA

Instrument 3: AMMETER KEITHLEY 6517A C 
Measure type: Current
range type: set range value
range value (ampere):  2 uA
Integration time:  set NPLC value
NPLC value: 10.000
Digital filter count: 2
Vsource: OFF
Output Voltage value: -0.000
Vsource range: 100 V
Trigger source: bus


Range Keithley C changed to 20 uA


Range Keithley C changed to 2 uA


Range Keithley C changed to 200 uA


________________________________________________________________________________

RelativeTime (msec)	Photon Energy	Var_1	Var_2	INSTR_1_Sample with Bias _(ampere ) 	INSTR_2_Monitor IM_(ampere)  	INSTR_3_Diode A3_(ampere)	I_BPM_sum (Amps)	
________________________________________________________________________________

1.40674000E+5	7.00008787E+1	0.00000000E+0	0.00000000E+0	-2.00000000E-13	9.12570000E-10	4.05055000E-7	7.96639567E-5
1.45306000E+5	7.09991398E+1	0.00000000E+0	0.00000000E+0	-3.90000000E-13	9.82410000E-10	4.40474000E-7	7.91299169E-5
1.48836000E+5	7.20005325E+1	0.00000000E+0	0.00000000E+0	-3.00000000E-14	8.36000000E-10	3.78745000E-7	7.94644272E-5
1.52259000E+5	7.29995864E+1	0.00000000E+0	0.00000000E+0	-2.40000000E-13	1.08241000E-9	5.00715000E-7	7.91199480E-5
1.55654000E+5	7.39996612E+1	0.00000000E+0	0.00000000E+0	-5.70000000E-13	1.23286000E-9	5.79056000E-7	7.94192588E-5
1.59016000E+5	7.50003514E+1	0.00000000E+0	0.00000000E+0	0.00000000E+0	1.25370000E-9	5.94342000E-7	7.90312086E-5
1.62483000E+5	7.59997843E+1	0.00000000E+0	0.00000000E+0	-1.50000000E-13	1.42307000E-9	6.86547000E-7	7.92144900E-5
1.65876000E+5	7.70001504E+1	0.00000000E+0	0.00000000E+0	-3.70000000E-13	1.59858000E-9	7.80780000E-7	7.91978930E-5
1.69219000E+5	7.80000988E+1	0.00000000E+0	0.00000000E+0	-4.00000000E-13	1.73660000E-9	8.58263000E-7	7.93405031E-5
1.72617000E+5	7.90000333E+1	0.00000000E+0	0.00000000E+0	-5.60000000E-13	1.88682000E-9	9.44198000E-7	7.92372232E-5
1.75971000E+5	8.00000765E+1	0.00000000E+0	0.00000000E+0	-3.40000000E-13	2.04128000E-9	1.03290200E-6	7.92079066E-5
1.79430000E+5	8.10000267E+1	0.00000000E+0	0.00000000E+0	-5.50000000E-13	2.19185000E-9	1.12135600E-6	7.93570285E-5
1.82833000E+5	8.19997105E+1	0.00000000E+0	0.00000000E+0	-2.70000000E-13	2.33817000E-9	1.20943700E-6	7.93705081E-5
1.86126000E+5	8.29993932E+1	0.00000000E+0	0.00000000E+0	-1.80000000E-13	2.50767000E-9	1.31113300E-6	7.89682751E-5
1.89550000E+5	8.40002469E+1	0.00000000E+0	0.00000000E+0	-3.20000000E-13	2.70032000E-9	1.42656200E-6	7.93117022E-5
1.92814000E+5	8.49997560E+1	0.00000000E+0	0.00000000E+0	-6.00000000E-13	2.89999000E-9	1.54683800E-6	7.92892938E-5
1.96087000E+5	8.60001584E+1	0.00000000E+0	0.00000000E+0	-6.00000000E-13	3.10640000E-9	1.67246900E-6	7.91179930E-5
1.99370000E+5	8.69996239E+1	0.00000000E+0	0.00000000E+0	-2.60000000E-13	3.32711000E-9	1.80728000E-6	7.91423296E-5
2.03375000E+5	8.80004609E+1	0.00000000E+0	0.00000000E+0	-6.80000000E-13	3.54766000E-9	1.94275000E-6	7.90359144E-5
2.06643000E+5	8.89999245E+1	0.00000000E+0	0.00000000E+0	-2.70000000E-13	3.77696000E-9	2.08403500E-6	7.92195832E-5
2.09916000E+5	9.00000001E+1	0.00000000E+0	0.00000000E+0	-6.20000000E-13	4.05199000E-9	9.90000000E+37	7.95407777E-5
2.13196000E+5	9.09994660E+1	0.00000000E+0	0.00000000E+0	-3.80000000E-13	4.35855000E-9	9.90000000E+37	7.91581755E-5
2.16469000E+5	9.20001929E+1	0.00000000E+0	0.00000000E+0	-2.30000000E-13	4.65455000E-9	9.90000000E+37	7.92019551E-5
2.19654000E+5	9.29998196E+1	0.00000000E+0	0.00000000E+0	-1.90000000E-13	4.95158000E-9	9.90000000E+37	7.95002585E-5
2.23045000E+5	9.39999865E+1	0.00000000E+0	0.00000000E+0	-4.00000000E-13	5.29133000E-9	9.90000000E+37	7.92407875E-5
2.26275000E+5	9.49996646E+1	0.00000000E+0	0.00000000E+0	-2.60000000E-13	5.63183000E-9	9.90000000E+37	7.91361933E-5
2.29529000E+5	9.59988555E+1	0.00000000E+0	0.00000000E+0	-4.50000000E-13	5.92854000E-9	9.90000000E+37	7.86895935E-5
2.32809000E+5	9.70011147E+1	0.00000000E+0	0.00000000E+0	-4.60000000E-13	6.20956000E-9	9.90000000E+37	7.92994415E-5
2.36041000E+5	9.79993459E+1	0.00000000E+0	0.00000000E+0	-4.30000000E-13	6.49383000E-9	9.90000000E+37	7.92914634E-5
2.39374000E+5	9.89997921E+1	0.00000000E+0	0.00000000E+0	-3.00000000E-14	6.75914000E-9	9.90000000E+37	7.90230488E-5
2.42588000E+5	1.00000181E+2	0.00000000E+0	0.00000000E+0	-3.10000000E-13	6.95339000E-9	9.90000000E+37	7.92272632E-5
2.45824000E+5	1.00999480E+2	0.00000000E+0	0.00000000E+0	-4.40000000E-13	6.69577000E-9	9.90000000E+37	7.92392110E-5
2.49047000E+5	1.02000088E+2	0.00000000E+0	0.00000000E+0	-4.70000000E-13	1.24220000E-10	7.55880000E-8	7.90742879E-5
