G:\BEAR_storage\User_Experiments\20220317_arneodo\file(1)_Region 1__0073.txt
Ring Energy (GeV): 2
Lifetime (hours): 15.2392
Scan beginning: 3/21/2022	1:51:28 PM
Ring current (mA): 308.78
Source position: x (mm): 0.006 x' (mrad): 0 y (mm): 0.002 y' (mrad): 0.002
Scan end: 3/21/2022	1:54:19 PM
Ring current (mA): 309.07
Source position: x (mm): 0.007 x' (mrad): -0.001 y (mm): 0 y' (mrad): 0.002

SCAN TYPE: PHOTON ENERGY VS VAR_1 VS VAR_2

FILE INFO: FILE INFO:

SCAN PARAMETERS
waiting time (ms): 0
Number of scans: 1
Current scan number: 1
DARK OFF 
PREDARK OFF 

SCAN PARAMETERS
Regions configuration: 
number of regions: 6
Mirror grating scan: on
Timed acquisition: off
Region 1:
Initial energy (eV): 40.000000
Final energy (eV): 72.000000
Delta energy (eV): 1.000000
Deviation angle choice: Higher order rejection
Deviation angle (°): NaN
Al filter
G1200 channel
range keithley B 20 nA
range keithley C 200 nA
range keithley A 20 nA
Var_1: PsiC 0.000000
Var_2: PhiM0.000000
Bias CEM (V): 0.000000
Bias Keithley B (V): -30.000000
Name region: 
Region 2:
Initial energy (eV): 70.000000
Final energy (eV): 102.000000
Delta energy (eV): 1.000000
Deviation angle choice: Higher order rejection
Deviation angle (°): NaN
Si filter
G1200 channel
range keithley B 20 nA
range keithley C 200 nA
range keithley A 20 nA
Var_1: PsiC 0.000000
Var_2: PhiM0.000000
Bias CEM (V): 0.000000
Bias Keithley B (V): -30.000000
Name region: 
Region 3:
Initial energy (eV): 98.000000
Final energy (eV): 260.000000
Delta energy (eV): 1.000000
Deviation angle choice: Higher order rejection
Deviation angle (°): NaN
Full Beam
G1200 channel
range keithley B 20 nA
range keithley C 200 nA
range keithley A 200 nA
Var_1: PsiC 0.000000
Var_2: PhiM0.000000
Bias CEM (V): 0.000000
Bias Keithley B (V): -30.000000
Name region: 
Region 4:
Initial energy (eV): 255.000000
Final energy (eV): 320.000000
Delta energy (eV): 1.000000
Deviation angle choice: Higher order rejection
Deviation angle (°): NaN
filter Ag 0.6 um
G1200 channel
range keithley B 200 pA
range keithley C 200 nA
range keithley A 200 pA
Var_1: PsiC 0.000000
Var_2: PhiM0.000000
Bias CEM (V): 0.000000
Bias Keithley B (V): -30.000000
Name region: 
Region 5:
Initial energy (eV): 315.000000
Final energy (eV): 1200.000000
Delta energy (eV): 5.000000
Deviation angle choice: Higher order rejection
Deviation angle (°): NaN
Full Beam
G1200 channel
range keithley B 20 nA
range keithley C 200 nA
range keithley A 20 nA
Var_1: PsiC 0.000000
Var_2: PhiM0.000000
Bias CEM (V): 0.000000
Bias Keithley B (V): -30.000000
Name region: 
Region 6:
Initial energy (eV): 1190.000000
Final energy (eV): 1500.000000
Delta energy (eV): 5.000000
Deviation angle choice: Higher order rejection
Deviation angle (°): NaN
filter Ag 0.6 um
G1200 channel
range keithley B 200 pA
range keithley C 200 nA
range keithley A 200 pA
Var_1: PsiC 0.000000
Var_2: PhiM0.000000
Bias CEM (V): 0.000000
Bias Keithley B (V): -30.000000
Name region: 

BEAR MONOCHROMATOR CONFIGURATION: 
Current Grating Position:     -236071.60
Current Mirror Position: 2557.0
Current Grating: G1200
P2 phiz position:  0.0000
Mono axis position: 25.0000
Current Photon Energy (eV): 40.000
Current Deviation Angle: 155.000
Vertical Exit Slits (um): 100.000
Exit slit y axis position: 1.3625
Horizontal Exit Slits (um):  889.156
Exit slit z axis position: 1.9229
Mitutoyo position (mm): 

Dose on sample (mJ/cm^2): NaN

ENERGY CALIBRATION:
offset grating G1200: not
Delta 0 order G1200:  0.0
offset grating G1800: not
Delta 0 order G1800:  0.0
offset grating GNIM: not
Delta 0 order GNIM:  0.0
ZERO ORDER POSITIONS:
Grating G1200: Mirror position:  4938.0
Grating position: -105355.0
Grating G1800: 
Mirror position:  4938.0
Grating position: -106345.0
Grating GNIM: 
Mirror position:  10000.0
Grating position: 227300.0

Initial filter: Full Beam

EXPERIMENTAL CHAMBER CONFIGURATION: 
PsiC (deg):   -0.000186
Phi Analyzer (degrees): 89.992308
Theta Manipulator (degrees): -44.000040
Theta Analyzer (degrees): -135.001468
PhiM (degrees): -0.003077
XM (mm): -4.499238
YM (mm): 25.962825
ZM (mm): (Warning: for kinetic energy scans, 
this parameter is given in the scan settings) 
-14.001438
TiltM (°): 0.000138

ELECTRON ANALYZER CONFIGURATION: 
Current Kinetik energy (eV): 35.0
Mode: DE = COST
Pass Energy (eV):  100.000
CEM: ON
Bias Front-Back CEM (V): 3499.698
Bias Back-Collector CEM (V): 100.874
Bias Retard-Front CEM: 100.104COIL VALUES
Ix (amps):2.820
Iy (amps): 6.789
Iz (amps): 37.403

POLARIZATION SELECTOR CONFIGURATION:
Psi1 (rad): -0.001665535
Psi2 (rad): 0.001417093
Z min position (mm): 46.599650
DZ position (mm): 18.599100
Zmin 0 (mm): 65.700000
DZ0 (mm): 54.000000

BEAM SELECTOR CONFIGURATION:
Zmin position (mm): NaN
DZ position (mm): NaN
Y+ position (mm): NaN
Y- position (mm): NaN

CHANNEL ELECTRON MULTIPLIER CONFIGURATION:
CEM configured: OFF
Bias CEM: 0.000000

FLUORESCENCE DETECTOR CONFIGURATION:
Not configured

LUMINESCENCE MONOCHROMATOR CONFIGURATION:
Optical fiber position (mm): 0.000000
Optical fiber Switch inside: ON
Optical fiber Switch outside: ON
Monochromator wavelength (A): 0.000000
Limit Switches: ON

I0 MONITOR PARAMETERS:
I0 detector position(mm): NaN
Lower switch: OFF
Upper switch: OFF
Valve status:unread

PRESSURE PARAMETERS:
Monitor chamber pressure (mbar): 9.255e-10
Experimental chamber pressure -ION GAUGE-(mbar): 0.000000E+0

XMCD PARAMETERS:
Xmcd OFF
Xmcd Direction -
Xmcd current (A): 0.000000

Gated scan off

Instrument 1: AMMETER KEITHLEY 6517A B
Measure type: Current
range type: set range value
range value (ampere):  200 pA
Integration time:  set NPLC value
NPLC value: 10.000
Digital filter count: 2
SAMPLE BIAS (V): -30.000
Vsource: ON
Output Voltage value: 30.000
Vsource range: 1000 V

Range Keithley B changed to 20 nA

Instrument 2: AMMETER KEITHLEY 6517A A
Measure type: Current
range type: set range value
range value (ampere):  200 pA
Integration time:  set NPLC value
NPLC value: 10.000
Digital filter count: 2
Vsource: OFF
Output Voltage value: -0.000
Vsource range: 100 V
Trigger source: bus

Range Keithley A changed to 20 nA

Instrument 3: COUNTER ORTEC 996Integration time (sec): 1.000


Range Keithley C changed to 200 nA


________________________________________________________________________________

RelativeTime (msec)	Photon Energy	Var_1	Var_2	INSTR_1_Sample with Bias _(ampere ) 	INSTR_2_Monitor IM_(ampere)  	INSTR_3_Ortec 996 counts_(counts)	I_BPM_sum (Amps)	
________________________________________________________________________________

5.95800000E+3	3.99999704E+1	0.00000000E+0	0.00000000E+0	1.44360000E-10	4.21100000E-11	3.25000000E+2	8.91773837E-5
1.21310000E+4	4.09997719E+1	0.00000000E+0	0.00000000E+0	1.61550000E-10	5.10900000E-11	3.25000000E+2	8.91243624E-5
1.72930000E+4	4.20000363E+1	0.00000000E+0	0.00000000E+0	1.73000000E-10	5.74100000E-11	3.61000000E+2	8.90782760E-5
2.24020000E+4	4.30000497E+1	0.00000000E+0	0.00000000E+0	1.85660000E-10	6.40000000E-11	3.90000000E+2	8.89217989E-5
2.75310000E+4	4.39998177E+1	0.00000000E+0	0.00000000E+0	1.96620000E-10	7.05800000E-11	4.15000000E+2	8.89337318E-5
3.24790000E+4	4.49997945E+1	0.00000000E+0	0.00000000E+0	2.08040000E-10	7.76400000E-11	4.03000000E+2	8.89681922E-5
3.74280000E+4	4.60002152E+1	0.00000000E+0	0.00000000E+0	2.23730000E-10	8.59400000E-11	4.47000000E+2	8.89488714E-5
4.23880000E+4	4.70000301E+1	0.00000000E+0	0.00000000E+0	2.40850000E-10	9.50300000E-11	5.02000000E+2	8.88706194E-5
4.73560000E+4	4.79999338E+1	0.00000000E+0	0.00000000E+0	2.52100000E-10	1.02840000E-10	5.51000000E+2	8.88763921E-5
5.23360000E+4	4.89999969E+1	0.00000000E+0	0.00000000E+0	2.52150000E-10	1.06620000E-10	5.41000000E+2	8.87650685E-5
5.71480000E+4	4.99997379E+1	0.00000000E+0	0.00000000E+0	2.36060000E-10	1.04250000E-10	4.84000000E+2	8.92473953E-5
6.19670000E+4	5.10001388E+1	0.00000000E+0	0.00000000E+0	2.13720000E-10	9.82300000E-11	4.65000000E+2	8.89709102E-5
6.67050000E+4	5.19997421E+1	0.00000000E+0	0.00000000E+0	2.11320000E-10	1.00210000E-10	4.95000000E+2	8.93213766E-5
7.14010000E+4	5.29999837E+1	0.00000000E+0	0.00000000E+0	2.36480000E-10	1.14800000E-10	5.52000000E+2	8.88286607E-5
7.62060000E+4	5.40003007E+1	0.00000000E+0	0.00000000E+0	2.71230000E-10	1.34610000E-10	6.24000000E+2	8.89632271E-5
8.08910000E+4	5.49998534E+1	0.00000000E+0	0.00000000E+0	3.05200000E-10	1.55120000E-10	6.49000000E+2	8.86108832E-5
8.55990000E+4	5.59998818E+1	0.00000000E+0	0.00000000E+0	3.37980000E-10	1.76240000E-10	7.61000000E+2	8.91876625E-5
9.03480000E+4	5.70000484E+1	0.00000000E+0	0.00000000E+0	3.70800000E-10	1.98450000E-10	8.01000000E+2	8.88296412E-5
9.50470000E+4	5.79999762E+1	0.00000000E+0	0.00000000E+0	4.04990000E-10	2.22730000E-10	9.39000000E+2	8.91745048E-5
9.96040000E+4	5.89998386E+1	0.00000000E+0	0.00000000E+0	4.43580000E-10	2.50690000E-10	1.01400000E+3	8.94109892E-5
1.04168000E+5	6.00001166E+1	0.00000000E+0	0.00000000E+0	4.82430000E-10	2.80670000E-10	1.01200000E+3	8.91764240E-5
1.08752000E+5	6.10001462E+1	0.00000000E+0	0.00000000E+0	5.19180000E-10	3.11360000E-10	1.10600000E+3	8.91138719E-5
1.13291000E+5	6.19998361E+1	0.00000000E+0	0.00000000E+0	5.52960000E-10	3.42140000E-10	1.21100000E+3	8.90166299E-5
1.17862000E+5	6.29998944E+1	0.00000000E+0	0.00000000E+0	5.82180000E-10	3.71250000E-10	1.29800000E+3	8.95477759E-5
1.22427000E+5	6.40000380E+1	0.00000000E+0	0.00000000E+0	6.04000000E-10	3.97040000E-10	1.34800000E+3	8.96340566E-5
1.27009000E+5	6.49999632E+1	0.00000000E+0	0.00000000E+0	6.17100000E-10	4.18160000E-10	1.29900000E+3	8.91817020E-5
1.31542000E+5	6.60001982E+1	0.00000000E+0	0.00000000E+0	6.21080000E-10	4.33480000E-10	1.34100000E+3	8.90886562E-5
1.35946000E+5	6.69995730E+1	0.00000000E+0	0.00000000E+0	6.19090000E-10	4.44430000E-10	1.31300000E+3	8.93378305E-5
1.40401000E+5	6.80003252E+1	0.00000000E+0	0.00000000E+0	6.22860000E-10	4.58670000E-10	1.38000000E+3	8.90803235E-5
1.44852000E+5	6.89999835E+1	0.00000000E+0	0.00000000E+0	6.39800000E-10	4.82750000E-10	1.42100000E+3	8.92939346E-5
1.49272000E+5	6.99999131E+1	0.00000000E+0	0.00000000E+0	6.67630000E-10	5.16000000E-10	1.46500000E+3	8.94934373E-5
1.53583000E+5	7.09998352E+1	0.00000000E+0	0.00000000E+0	6.83390000E-10	5.42380000E-10	1.47000000E+3	8.91799318E-5
1.58030000E+5	7.20004304E+1	0.00000000E+0	0.00000000E+0	5.56190000E-10	4.53090000E-10	1.22000000E+3	8.90881138E-5
