G:\BEAR_storage\User_Experiments\20220317_arneodo\file(1)_Region 2__0085.txt
Ring Energy (GeV): 2
Lifetime (hours): 15.7742
Scan beginning: 3/22/2022	2:55:31 AM
Ring current (mA): 309.17
Source position: x (mm): 0.008 x' (mrad): -0.001 y (mm): -0.001 y' (mrad): 0.002
Scan end: 3/22/2022	3:05:15 AM
Ring current (mA): 308.76
Source position: x (mm): 0.007 x' (mrad): 0 y (mm): -0.001 y' (mrad): 0.002

SCAN TYPE: PHOTON ENERGY VS VAR_1 VS VAR_2

FILE INFO: FILE INFO:

SCAN PARAMETERS
waiting time (ms): 1000
Number of scans: 1
Current scan number: 1
DARK OFF 
PREDARK OFF 

SCAN PARAMETERS
Regions configuration: 
number of regions: 7
Mirror grating scan: on
Timed acquisition: off
Region 1:
Initial energy (eV): 3.000000
Final energy (eV): 4.500000
Delta energy (eV): 0.100000
Deviation angle choice: Degrees: 
Deviation angle (°): NaN
B270 window
GNIM channel
range keithley B 200 pA
range keithley C 200 pA
range keithley A 200 pA
Var_1: PsiC 0.000000
Var_2: PhiM0.000000
Bias CEM (V): 0.000000
Bias Keithley B (V): -30.000000
Name region: 
Region 2:
Initial energy (eV): 4.000000
Final energy (eV): 8.000000
Delta energy (eV): 0.100000
Deviation angle choice: Degrees: 
Deviation angle (°): NaN
SiO2 window
GNIM channel
range keithley B 200 pA
range keithley C 200 pA
range keithley A 200 pA
Var_1: PsiC 0.000000
Var_2: PhiM0.000000
Bias CEM (V): 0.000000
Bias Keithley B (V): -30.000000
Name region: 
Region 3:
Initial energy (eV): 7.000000
Final energy (eV): 12.000000
Delta energy (eV): 0.100000
Deviation angle choice: Degrees: 
Deviation angle (°): NaN
filter LiF window
GNIM channel
range keithley B 200 pA
range keithley C 200 pA
range keithley A 200 pA
Var_1: PsiC 0.000000
Var_2: PhiM0.000000
Bias CEM (V): 0.000000
Bias Keithley B (V): -30.000000
Name region: 
Region 4:
Initial energy (eV): 11.000000
Final energy (eV): 18.000000
Delta energy (eV): 0.100000
Deviation angle choice: Degrees: 
Deviation angle (°): NaN
In filter
GNIM channel
range keithley B 200 pA
range keithley C 200 pA
range keithley A 200 pA
Var_1: PsiC 0.000000
Var_2: PhiM0.000000
Bias CEM (V): 0.000000
Bias Keithley B (V): -30.000000
Name region: 
Region 5:
Initial energy (eV): 15.000000
Final energy (eV): 25.000000
Delta energy (eV): 0.100000
Deviation angle choice: Degrees: 
Deviation angle (°): NaN
Sn filter
GNIM channel
range keithley B 200 pA
range keithley C 200 pA
range keithley A 200 pA
Var_1: PsiC 0.000000
Var_2: PhiM0.000000
Bias CEM (V): 0.000000
Bias Keithley B (V): -30.000000
Name region: 
Region 6:
Initial energy (eV): 23.000000
Final energy (eV): 45.000000
Delta energy (eV): 0.100000
Deviation angle choice: Degrees: 
Deviation angle (°): NaN
Full Beam
GNIM channel
range keithley B 20 nA
range keithley C 200 pA
range keithley A 20 nA
Var_1: PsiC 0.000000
Var_2: PhiM0.000000
Bias CEM (V): 0.000000
Bias Keithley B (V): -30.000000
Name region: 
Region 7:
Initial energy (eV): 23.000000
Final energy (eV): 45.000000
Delta energy (eV): 0.100000
Deviation angle choice: Degrees: 
Deviation angle (°): NaN
Al filter
GNIM channel
range keithley B 20 nA
range keithley C 200 pA
range keithley A 20 nA
Var_1: PsiC 0.000000
Var_2: PhiM0.000000
Bias CEM (V): 0.000000
Bias Keithley B (V): -30.000000
Name region: 

BEAR MONOCHROMATOR CONFIGURATION: 
Current Grating Position:     200056.80
Current Mirror Position: 10000.0
Current Grating: GNIM
P2 phiz position:  -0.0195
Mono axis position: 73.5000
Current Photon Energy (eV): 45.000
Current Deviation Angle: 29.905
Vertical Exit Slits (um): 100.000
Exit slit y axis position: 1.3625
Horizontal Exit Slits (um):  889.156
Exit slit z axis position: 1.9229
Mitutoyo position (mm): 

Dose on sample (mJ/cm^2): NaN

ENERGY CALIBRATION:
offset grating G1200: yes
Delta 0 order G1200:  -1100.0
offset grating G1800: not
Delta 0 order G1800:  0.0
offset grating GNIM: not
Delta 0 order GNIM:  0.0
ZERO ORDER POSITIONS:
Grating G1200: Mirror position:  4938.0
Grating position: -105355.0
Grating G1800: 
Mirror position:  4938.0
Grating position: -106345.0
Grating GNIM: 
Mirror position:  10000.0
Grating position: 227300.0

Initial filter: Al filter

EXPERIMENTAL CHAMBER CONFIGURATION: 
PsiC (deg):   -0.000186
Phi Analyzer (degrees): 89.993255
Theta Manipulator (degrees): -44.000040
Theta Analyzer (degrees): -135.001468
PhiM (degrees): -0.003077
XM (mm): 0.000913
YM (mm): 7.907125
ZM (mm): (Warning: for kinetic energy scans, 
this parameter is given in the scan settings) 
-10.201325
TiltM (°): 0.000138

ELECTRON ANALYZER CONFIGURATION: 
Current Kinetik energy (eV): 35.0
Mode: DE = COST
Pass Energy (eV):  100.000
CEM: ON
Bias Front-Back CEM (V): 3499.698
Bias Back-Collector CEM (V): 100.874
Bias Retard-Front CEM: 100.104COIL VALUES
Ix (amps):2.820
Iy (amps): 6.789
Iz (amps): 37.403

POLARIZATION SELECTOR CONFIGURATION:
Psi1 (rad): -0.001665535
Psi2 (rad): 0.001417093
Z min position (mm): 46.599650
DZ position (mm): 18.599100
Zmin 0 (mm): 65.700000
DZ0 (mm): 54.000000

BEAM SELECTOR CONFIGURATION:
Zmin position (mm): NaN
DZ position (mm): NaN
Y+ position (mm): NaN
Y- position (mm): NaN

CHANNEL ELECTRON MULTIPLIER CONFIGURATION:
CEM configured: OFF
Bias CEM: 0.000000

FLUORESCENCE DETECTOR CONFIGURATION:
Not configured

LUMINESCENCE MONOCHROMATOR CONFIGURATION:
Optical fiber position (mm): 0.000000
Optical fiber Switch inside: ON
Optical fiber Switch outside: ON
Monochromator wavelength (A): 0.000000
Limit Switches: ON

I0 MONITOR PARAMETERS:
I0 detector position(mm): NaN
Lower switch: OFF
Upper switch: OFF
Valve status:unread

PRESSURE PARAMETERS:
Monitor chamber pressure (mbar): 9.057e-10
Experimental chamber pressure -ION GAUGE-(mbar): 0.000000E+0

XMCD PARAMETERS:
Xmcd OFF
Xmcd Direction -
Xmcd current (A): 0.000000

Gated scan off

Instrument 1: AMMETER KEITHLEY 6517A B
Measure type: Current
range type: set range value
range value (ampere):  200 pA
Integration time:  set NPLC value
NPLC value: 10.000
Digital filter count: 2
SAMPLE BIAS (V): -30.000
Vsource: ON
Output Voltage value: 30.000
Vsource range: 1000 V

Range Keithley B changed to 20 nA

Range Keithley B changed to 200 pA

Range Keithley B changed to 20 nA

Range Keithley B changed to 200 pA

Keithley B Bias (V) changed to: 0.000000

Range Keithley B changed to 20 nA

Keithley B Bias (V) changed to: -30.000000

Range Keithley B changed to 200 pA

Range Keithley B changed to 20 nA

Range Keithley B changed to 200 pA

Range Keithley B changed to 20 nA

Range Keithley B changed to 200 pA

Range Keithley B changed to 20 nA

Range Keithley B changed to 200 pA

Keithley B Bias (V) changed to: 0.000000

Keithley B Bias (V) changed to: -30.000000

Range Keithley B changed to 20 nA

Range Keithley B changed to 200 pA

Range Keithley B changed to 20 nA

Range Keithley B changed to 200 pA

Range Keithley B changed to 20 nA

Range Keithley B changed to 200 pA

Range Keithley B changed to 20 nA

Range Keithley B changed to 200 pA

Instrument 2: AMMETER KEITHLEY 6517A A
Measure type: Current
range type: set range value
range value (ampere):  200 pA
Integration time:  set NPLC value
NPLC value: 10.000
Digital filter count: 2
Vsource: OFF
Output Voltage value: -0.000
Vsource range: 100 V
Trigger source: bus

Range Keithley A changed to 20 nA

Range Keithley A changed to 200 nA

Range Keithley A changed to 200 pA

Range Keithley A changed to 20 nA

Range Keithley A changed to 200 pA

Range Keithley A changed to 20 nA

Range Keithley A changed to 200 nA

Range Keithley A changed to 200 pA

Range Keithley A changed to 20 nA

Range Keithley A changed to 200 pA

Range Keithley A changed to 20 nA

Range Keithley A changed to 200 nA

Range Keithley A changed to 200 pA

Range Keithley A changed to 20 nA

Range Keithley A changed to 200 pA

Range Keithley A changed to 20 nA

Range Keithley A changed to 200 pA

Range Keithley A changed to 20 nA

Range Keithley A changed to 200 pA

Range Keithley A changed to 20 nA

Range Keithley A changed to 200 pA

Range Keithley A changed to 20 nA

Range Keithley A changed to 200 pA

Range Keithley A changed to 20 nA

Range Keithley A changed to 200 pA

Instrument 3: COUNTER ORTEC 996Integration time (sec): 1.000


Range Keithley C changed to 200 nA


Range Keithley C changed to 2 uA


Range Keithley C changed to 200 nA


Range Keithley C changed to 2 uA


Range Keithley C changed to 200 pA


________________________________________________________________________________

RelativeTime (msec)	Photon Energy	Var_1	Var_2	INSTR_1_Sample with Bias _(ampere ) 	INSTR_2_Monitor IM_(ampere)  	INSTR_3_Ortec 996 counts_(counts)	I_BPM_sum (Amps)	
________________________________________________________________________________

2.09889000E+5	4.00000299E+0	0.00000000E+0	0.00000000E+0	2.53000000E-13	7.09000000E-14	0.00000000E+0	8.94672083E-5
2.21873000E+5	4.09999823E+0	0.00000000E+0	0.00000000E+0	2.56000000E-13	7.17000000E-14	0.00000000E+0	8.94500571E-5
2.32500000E+5	4.19999076E+0	0.00000000E+0	0.00000000E+0	2.59000000E-13	7.24000000E-14	0.00000000E+0	8.93123137E-5
2.42820000E+5	4.29999548E+0	0.00000000E+0	0.00000000E+0	2.61900000E-13	7.18000000E-14	0.00000000E+0	8.92435687E-5
2.52835000E+5	4.40000251E+0	0.00000000E+0	0.00000000E+0	2.60600000E-13	7.35000000E-14	0.00000000E+0	8.95883667E-5
2.62856000E+5	4.50000329E+0	0.00000000E+0	0.00000000E+0	2.59900000E-13	7.57000000E-14	0.00000000E+0	8.90190350E-5
2.72735000E+5	4.59999951E+0	0.00000000E+0	0.00000000E+0	2.61500000E-13	7.11000000E-14	0.00000000E+0	8.93395411E-5
2.82673000E+5	4.69999503E+0	0.00000000E+0	0.00000000E+0	2.57000000E-13	7.10000000E-14	0.00000000E+0	8.93317657E-5
2.92313000E+5	4.79999311E+0	0.00000000E+0	0.00000000E+0	2.63200000E-13	7.38000000E-14	0.00000000E+0	8.92424809E-5
3.02141000E+5	4.90000901E+0	0.00000000E+0	0.00000000E+0	2.66500000E-13	7.21000000E-14	0.00000000E+0	8.92020689E-5
3.11666000E+5	5.00000439E+0	0.00000000E+0	0.00000000E+0	2.61700000E-13	7.37000000E-14	0.00000000E+0	8.93463480E-5
3.20998000E+5	5.10000126E+0	0.00000000E+0	0.00000000E+0	2.59900000E-13	7.55000000E-14	0.00000000E+0	8.95940977E-5
3.30157000E+5	5.19999757E+0	0.00000000E+0	0.00000000E+0	2.62600000E-13	7.39000000E-14	0.00000000E+0	8.88984250E-5
3.39325000E+5	5.30000365E+0	0.00000000E+0	0.00000000E+0	2.55800000E-13	7.98000000E-14	0.00000000E+0	8.92973261E-5
3.48362000E+5	5.39999029E+0	0.00000000E+0	0.00000000E+0	2.60500000E-13	7.34000000E-14	0.00000000E+0	8.90755432E-5
3.57609000E+5	5.50000542E+0	0.00000000E+0	0.00000000E+0	2.59300000E-13	7.46000000E-14	0.00000000E+0	8.91281651E-5
3.66540000E+5	5.59999767E+0	0.00000000E+0	0.00000000E+0	2.62200000E-13	8.28000000E-14	0.00000000E+0	8.92472880E-5
3.75438000E+5	5.70000842E+0	0.00000000E+0	0.00000000E+0	2.58700000E-13	8.33000000E-14	0.00000000E+0	8.90488820E-5
3.84326000E+5	5.80000087E+0	0.00000000E+0	0.00000000E+0	2.60800000E-13	8.21000000E-14	0.00000000E+0	8.89880882E-5
3.93229000E+5	5.90000656E+0	0.00000000E+0	0.00000000E+0	2.55500000E-13	8.54000000E-14	0.00000000E+0	8.90925633E-5
4.02040000E+5	5.99999233E+0	0.00000000E+0	0.00000000E+0	2.57000000E-13	9.19000000E-14	0.00000000E+0	8.91418653E-5
4.10453000E+5	6.10000594E+0	0.00000000E+0	0.00000000E+0	2.61200000E-13	8.82000000E-14	0.00000000E+0	8.91411888E-5
4.18679000E+5	6.20000987E+0	0.00000000E+0	0.00000000E+0	2.60200000E-13	9.69000000E-14	0.00000000E+0	8.95812886E-5
4.26930000E+5	6.29999544E+0	0.00000000E+0	0.00000000E+0	2.62100000E-13	1.07500000E-13	0.00000000E+0	8.97723901E-5
4.35200000E+5	6.39999718E+0	0.00000000E+0	0.00000000E+0	2.62600000E-13	1.07600000E-13	0.00000000E+0	8.93823820E-5
4.43489000E+5	6.50000566E+0	0.00000000E+0	0.00000000E+0	2.57500000E-13	1.15400000E-13	0.00000000E+0	8.97220868E-5
4.51670000E+5	6.59999856E+0	0.00000000E+0	0.00000000E+0	2.61700000E-13	1.26100000E-13	0.00000000E+0	8.95315575E-5
4.59922000E+5	6.69999671E+0	0.00000000E+0	0.00000000E+0	2.62600000E-13	1.40300000E-13	0.00000000E+0	8.95567762E-5
4.67997000E+5	6.80000225E+0	0.00000000E+0	0.00000000E+0	2.57000000E-13	1.49500000E-13	0.00000000E+0	8.94939529E-5
4.75132000E+5	6.90000654E+0	0.00000000E+0	0.00000000E+0	2.59700000E-13	1.68400000E-13	0.00000000E+0	8.94346582E-5
4.83060000E+5	6.99999598E+0	0.00000000E+0	0.00000000E+0	2.58500000E-13	1.83500000E-13	0.00000000E+0	8.93824714E-5
4.90796000E+5	7.09999607E+0	0.00000000E+0	0.00000000E+0	2.61400000E-13	2.08600000E-13	0.00000000E+0	8.95629304E-5
4.98389000E+5	7.20000464E+0	0.00000000E+0	0.00000000E+0	2.63500000E-13	2.34700000E-13	0.00000000E+0	8.94503253E-5
5.06154000E+5	7.30000015E+0	0.00000000E+0	0.00000000E+0	2.57300000E-13	2.60800000E-13	0.00000000E+0	8.95215171E-5
5.13918000E+5	7.39999674E+0	0.00000000E+0	0.00000000E+0	2.58600000E-13	2.75500000E-13	0.00000000E+0	8.91710298E-5
5.22240000E+5	7.50000292E+0	0.00000000E+0	0.00000000E+0	2.47900000E-13	2.72600000E-13	0.00000000E+0	8.94192772E-5
5.29889000E+5	7.59996829E+0	0.00000000E+0	0.00000000E+0	2.66100000E-13	2.35400000E-13	0.00000000E+0	8.95108151E-5
5.37535000E+5	7.69999804E+0	0.00000000E+0	0.00000000E+0	2.57200000E-13	1.69400000E-13	0.00000000E+0	8.93951344E-5
5.45183000E+5	7.80003050E+0	0.00000000E+0	0.00000000E+0	2.57800000E-13	1.04300000E-13	0.00000000E+0	8.89963942E-5
5.52792000E+5	7.89999762E+0	0.00000000E+0	0.00000000E+0	2.56900000E-13	7.67000000E-14	0.00000000E+0	8.95173746E-5
5.60423000E+5	7.99998665E+0	0.00000000E+0	0.00000000E+0	2.58100000E-13	7.10000000E-14	0.00000000E+0	8.92764377E-5
