G:\BEAR_storage\User_Experiments\20220317_arneodo\file(1)_Region 2__0046.txt
Ring Energy (GeV): 2
Lifetime (hours): 16.715
Scan beginning: 3/18/2022	10:35:31 PM
Ring current (mA): 262.5
Source position: x (mm): -0.002 x' (mrad): 0.005 y (mm): 0.002 y' (mrad): -0.003
Scan end: 3/18/2022	10:40:02 PM
Ring current (mA): 261.31
Source position: x (mm): -0.004 x' (mrad): 0.006 y (mm): 0.004 y' (mrad): -0.004

SCAN TYPE: PHOTON ENERGY VS VAR_1 VS VAR_2

FILE INFO: FILE INFO:

SCAN PARAMETERS
waiting time (ms): 0
Number of scans: 1
Current scan number: 1
DARK OFF 
PREDARK OFF 

SCAN PARAMETERS
Regions configuration: 
number of regions: 7
Mirror grating scan: on
Timed acquisition: off
Region 1:
Initial energy (eV): 40.000000
Final energy (eV): 72.000000
Delta energy (eV): 1.000000
Deviation angle choice: Higher order rejection
Deviation angle (°): NaN
Al filter
G1200 channel
range keithley B 20 nA
range keithley C 2 uA
range keithley A 2 uA
Var_1: PsiC 0.000000
Var_2: PhiM0.000000
Bias CEM (V): 0.000000
Bias Keithley B (V): -30.000000
Name region: 
Region 2:
Initial energy (eV): 70.000000
Final energy (eV): 102.000000
Delta energy (eV): 1.000000
Deviation angle choice: Higher order rejection
Deviation angle (°): NaN
Si filter
G1200 channel
range keithley B 20 nA
range keithley C 20 uA
range keithley A 20 nA
Var_1: PsiC 0.000000
Var_2: PhiM0.000000
Bias CEM (V): 0.000000
Bias Keithley B (V): -30.000000
Name region: 
Region 3:
Initial energy (eV): 98.000000
Final energy (eV): 260.000000
Delta energy (eV): 1.000000
Deviation angle choice: Higher order rejection
Deviation angle (°): NaN
Full Beam
G1200 channel
range keithley B 20 nA
range keithley C 200 uA
range keithley A 200 nA
Var_1: PsiC 0.000000
Var_2: PhiM0.000000
Bias CEM (V): 0.000000
Bias Keithley B (V): -30.000000
Name region: 
Region 4:
Initial energy (eV): 255.000000
Final energy (eV): 320.000000
Delta energy (eV): 1.000000
Deviation angle choice: Higher order rejection
Deviation angle (°): NaN
filter Ag 0.6 um
G1200 channel
range keithley B 200 pA
range keithley C 2 uA
range keithley A 20 nA
Var_1: PsiC 0.000000
Var_2: PhiM0.000000
Bias CEM (V): 0.000000
Bias Keithley B (V): -30.000000
Name region: 
Region 5:
Initial energy (eV): 255.000000
Final energy (eV): 320.000000
Delta energy (eV): 1.000000
Deviation angle choice: Higher order rejection
Deviation angle (°): NaN
Full Beam
G1200 channel
range keithley B 200 pA
range keithley C 2 uA
range keithley A 20 nA
Var_1: PsiC 0.000000
Var_2: PhiM0.000000
Bias CEM (V): 0.000000
Bias Keithley B (V): -30.000000
Name region: 
Region 6:
Initial energy (eV): 315.000000
Final energy (eV): 1200.000000
Delta energy (eV): 5.000000
Deviation angle choice: Higher order rejection
Deviation angle (°): NaN
Full Beam
G1200 channel
range keithley B 20 nA
range keithley C 20 uA
range keithley A 200 nA
Var_1: PsiC 0.000000
Var_2: PhiM0.000000
Bias CEM (V): 0.000000
Bias Keithley B (V): -30.000000
Name region: 
Region 7:
Initial energy (eV): 1190.000000
Final energy (eV): 1500.000000
Delta energy (eV): 5.000000
Deviation angle choice: Higher order rejection
Deviation angle (°): NaN
filter Ag 0.6 um
G1200 channel
range keithley B 200 pA
range keithley C 2 uA
range keithley A 200 pA
Var_1: PsiC 0.000000
Var_2: PhiM0.000000
Bias CEM (V): 0.000000
Bias Keithley B (V): -30.000000
Name region: 

BEAR MONOCHROMATOR CONFIGURATION: 
Current Grating Position:     111372.40
Current Mirror Position: 251042.5
Current Grating: G1200
P2 phiz position:  0.0000
Mono axis position: 25.0000
Current Photon Energy (eV): 729.986
Current Deviation Angle: 172.600
Vertical Exit Slits (um): 450.000
Exit slit y axis position: 2.2375
Horizontal Exit Slits (um):  889.156
Exit slit z axis position: 1.9229
Mitutoyo position (mm): 

Dose on sample (mJ/cm^2): NaN

ENERGY CALIBRATION:
offset grating G1200: yes
Delta 0 order G1200:  -800.0
offset grating G1800: not
Delta 0 order G1800:  0.0
offset grating GNIM: not
Delta 0 order GNIM:  0.0
ZERO ORDER POSITIONS:
Grating G1200: Mirror position:  4938.0
Grating position: -105355.0
Grating G1800: 
Mirror position:  4938.0
Grating position: -106345.0
Grating GNIM: 
Mirror position:  10000.0
Grating position: 227300.0

Initial filter: Full Beam

EXPERIMENTAL CHAMBER CONFIGURATION: 
PsiC (deg):   -0.000186
Phi Analyzer (degrees): 89.992308
Theta Manipulator (degrees): -44.000040
Theta Analyzer (degrees): -135.001468
PhiM (degrees): -0.004103
XM (mm): 0.000713
YM (mm): 19.932987
ZM (mm): (Warning: for kinetic energy scans, 
this parameter is given in the scan settings) 
-6.601438
TiltM (°): 0.000138

ELECTRON ANALYZER CONFIGURATION: 
Current Kinetik energy (eV): 35.0
Mode: DE = COST
Pass Energy (eV):  50.000
CEM: ON
Bias Front-Back CEM (V): 3499.561
Bias Back-Collector CEM (V): 100.874
Bias Retard-Front CEM: 100.087COIL VALUES
Ix (amps):2.820
Iy (amps): 6.789
Iz (amps): 37.337

POLARIZATION SELECTOR CONFIGURATION:
Psi1 (rad): -0.001665535
Psi2 (rad): 0.001417093
Z min position (mm): 46.599650
DZ position (mm): 18.599100
Zmin 0 (mm): 66.500000
DZ0 (mm): 53.000000

BEAM SELECTOR CONFIGURATION:
Zmin position (mm): NaN
DZ position (mm): NaN
Y+ position (mm): NaN
Y- position (mm): NaN

CHANNEL ELECTRON MULTIPLIER CONFIGURATION:
CEM configured: OFF
Bias CEM: 0.000000

FLUORESCENCE DETECTOR CONFIGURATION:
Not configured

LUMINESCENCE MONOCHROMATOR CONFIGURATION:
Optical fiber position (mm): 0.000000
Optical fiber Switch inside: OFF
Optical fiber Switch outside: ON
Monochromator wavelength (A): 0.000000
Limit Switches: ON

I0 MONITOR PARAMETERS:
I0 detector position(mm): -0.000000E+0
Lower switch: OFF
Upper switch: OFF
Valve status:open

PRESSURE PARAMETERS:
Monitor chamber pressure (mbar): 8.903e-10
Experimental chamber pressure -ION GAUGE-(mbar): 0.000000E+0

XMCD PARAMETERS:
Xmcd OFF
Xmcd Direction -
Xmcd current (A): 0.000000

Gated scan off

Instrument 1: AMMETER KEITHLEY 6517A B
Measure type: Current
range type: set range value
range value (ampere):  200 pA
Integration time:  set NPLC value
NPLC value: 10.000
Digital filter count: 2
SAMPLE BIAS (V): -30.000
Vsource: ON
Output Voltage value: 30.000
Vsource range: 1000 V

Range Keithley B changed to 20 nA

Range Keithley B changed to 200 pA

Range Keithley B changed to 20 nA

Range Keithley B changed to 200 pA

Range Keithley B changed to 20 nA

Range Keithley B changed to 200 pA

Range Keithley B changed to 20 nA

Range Keithley B changed to 200 nA

Range Keithley B changed to 200 pA

Range Keithley B changed to 20 nA

Range Keithley B changed to 200 pA

Range Keithley B changed to 20 nA

Range Keithley B changed to 200 pA

Range Keithley B changed to 20 nA

Range Keithley B changed to 200 pA

Range Keithley B changed to 20 nA

Range Keithley B changed to 200 pA

Range Keithley B changed to 20 nA

Range Keithley B changed to 200 pA

Range Keithley B changed to 20 nA

Range Keithley B changed to 200 pA

Range Keithley B changed to 20 nA

Range Keithley B changed to 200 pA

Range Keithley B changed to 20 nA

Instrument 2: AMMETER KEITHLEY 6517A A
Measure type: Current
range type: set range value
range value (ampere):  200 nA
Integration time:  set NPLC value
NPLC value: 10.000
Digital filter count: 2
Vsource: OFF
Output Voltage value: -0.000
Vsource range: 100 V
Trigger source: bus

Range Keithley A changed to 20 nA

Range Keithley A changed to 200 nA

Range Keithley A changed to 200 pA

Range Keithley A changed to 20 nA

Range Keithley A changed to 200 pA

Range Keithley A changed to 20 nA

Range Keithley A changed to 200 nA

Range Keithley A changed to 200 pA

Range Keithley A changed to 20 nA

Range Keithley A changed to 200 pA

Range Keithley A changed to 20 nA

Range Keithley A changed to 200 nA

Range Keithley A changed to 200 pA

Range Keithley A changed to 20 nA

Range Keithley A changed to 200 pA

Range Keithley A changed to 20 nA

Range Keithley A changed to 200 pA

Range Keithley A changed to 20 nA

Range Keithley A changed to 200 pA

Range Keithley A changed to 20 nA

Range Keithley A changed to 200 pA

Range Keithley A changed to 20 nA

Range Keithley A changed to 200 nA

Range Keithley A changed to 200 pA

Range Keithley A changed to 20 nA

Range Keithley A changed to 200 pA

Range Keithley A changed to 20 nA

Range Keithley A changed to 200 nA

Range Keithley A changed to 200 pA

Range Keithley A changed to 20 nA

Range Keithley A changed to 200 nA

Range Keithley A changed to 200 pA

Range Keithley A changed to 20 nA

Range Keithley A changed to 200 pA

Range Keithley A changed to 20 nA

Range Keithley A changed to 200 pA

Range Keithley A changed to 20 nA

Range Keithley A changed to 200 nA

Range Keithley A changed to 200 pA

Range Keithley A changed to 20 nA

Range Keithley A changed to 200 pA

Range Keithley A changed to 20 nA

Range Keithley A changed to 200 nA

Range Keithley A changed to 20 nA

Range Keithley A changed to 200 nA

Range Keithley A changed to 200 pA

Range Keithley A changed to 20 nA

Range Keithley A changed to 200 nA

Range Keithley A changed to 2 uA

Range Keithley A changed to 20 nA

Range Keithley A changed to 200 nA

Range Keithley A changed to 2 uA

Range Keithley A changed to 20 nA

Range Keithley A changed to 200 nA

Range Keithley A changed to 200 pA

Range Keithley A changed to 2 uA

Range Keithley A changed to 20 nA

Range Keithley A changed to 200 nA

Range Keithley A changed to 200 pA

Range Keithley A changed to 20 nA

Range Keithley A changed to 2 uA

Range Keithley A changed to 20 nA

Range Keithley A changed to 200 nA

Instrument 3: AMMETER KEITHLEY 6517A C 
Measure type: Current
range type: set range value
range value (ampere):  2 uA
Integration time:  set NPLC value
NPLC value: 10.000
Digital filter count: 2
Vsource: OFF
Output Voltage value: -0.000
Vsource range: 100 V
Trigger source: bus


Range Keithley C changed to 20 uA


Range Keithley C changed to 2 uA


Range Keithley C changed to 200 uA


Range Keithley C changed to 2 uA


Range Keithley C changed to 20 uA


Range Keithley C changed to 200 uA


________________________________________________________________________________

RelativeTime (msec)	Photon Energy	Var_1	Var_2	INSTR_1_Sample with Bias _(ampere ) 	INSTR_2_Monitor IM_(ampere)  	INSTR_3_Diode A3_(ampere)	I_BPM_sum (Amps)	
________________________________________________________________________________

1.43965000E+5	7.00005890E+1	0.00000000E+0	0.00000000E+0	-3.10000000E-13	8.76770000E-10	3.84700000E-7	7.67666431E-5
1.48738000E+5	7.09992392E+1	0.00000000E+0	0.00000000E+0	-5.50000000E-13	9.44730000E-10	4.18630000E-7	7.66305329E-5
1.52279000E+5	7.20003282E+1	0.00000000E+0	0.00000000E+0	-4.60000000E-13	8.02400000E-10	3.59340000E-7	7.66714813E-5
1.55932000E+5	7.29999014E+1	0.00000000E+0	0.00000000E+0	-3.20000000E-13	1.04098000E-9	4.76000000E-7	7.63379039E-5
1.59360000E+5	7.39997691E+1	0.00000000E+0	0.00000000E+0	-2.20000000E-13	1.18623000E-9	5.50580000E-7	7.64927359E-5
1.62958000E+5	7.49997972E+1	0.00000000E+0	0.00000000E+0	-3.40000000E-13	1.20857000E-9	5.66160000E-7	7.66891183E-5
1.66395000E+5	7.60002395E+1	0.00000000E+0	0.00000000E+0	-2.40000000E-13	1.37045000E-9	6.53270000E-7	7.64802487E-5
1.69889000E+5	7.69999167E+1	0.00000000E+0	0.00000000E+0	-2.90000000E-13	1.54002000E-9	7.43220000E-7	7.65243055E-5
1.73323000E+5	7.80003385E+1	0.00000000E+0	0.00000000E+0	-4.50000000E-13	1.67353000E-9	8.17290000E-7	7.64353694E-5
1.76741000E+5	7.90000333E+1	0.00000000E+0	0.00000000E+0	-4.80000000E-13	1.81884000E-9	8.99280000E-7	7.66376885E-5
1.80135000E+5	8.00000765E+1	0.00000000E+0	0.00000000E+0	-3.10000000E-13	1.96807000E-9	9.84050000E-7	7.65948894E-5
1.83501000E+5	8.09996388E+1	0.00000000E+0	0.00000000E+0	-9.10000000E-13	2.11396000E-9	1.06854000E-6	7.67306777E-5
1.86962000E+5	8.20001080E+1	0.00000000E+0	0.00000000E+0	-4.10000000E-13	2.25566000E-9	1.15266000E-6	7.62638958E-5
1.90452000E+5	8.29998005E+1	0.00000000E+0	0.00000000E+0	-2.90000000E-13	2.41936000E-9	1.24974000E-6	7.66706200E-5
1.93848000E+5	8.39992736E+1	0.00000000E+0	0.00000000E+0	-3.80000000E-13	2.60567000E-9	1.35996000E-6	7.63459237E-5
1.97267000E+5	8.50001831E+1	0.00000000E+0	0.00000000E+0	-3.80000000E-13	2.79853000E-9	1.47491000E-6	7.65959414E-5
2.00635000E+5	8.60001584E+1	0.00000000E+0	0.00000000E+0	-3.40000000E-13	2.99784000E-9	1.59474000E-6	7.67511728E-5
2.03962000E+5	8.70000714E+1	0.00000000E+0	0.00000000E+0	-5.10000000E-13	3.21222000E-9	1.72383000E-6	7.63304146E-5
2.08057000E+5	8.80000031E+1	0.00000000E+0	0.00000000E+0	-3.00000000E-13	3.42498000E-9	1.85325000E-6	7.64302941E-5
2.11549000E+5	8.89999245E+1	0.00000000E+0	0.00000000E+0	-3.00000000E-13	3.64772000E-9	1.98869000E-6	7.65630098E-5
2.15073000E+5	9.00001598E+1	0.00000000E+0	0.00000000E+0	-5.20000000E-13	3.91380000E-9	2.15057000E-6	7.67144384E-5
2.18397000E+5	9.09993209E+1	0.00000000E+0	0.00000000E+0	-5.60000000E-13	4.20944000E-9	2.33002000E-6	7.66122671E-5
2.21917000E+5	9.20001929E+1	0.00000000E+0	0.00000000E+0	-3.60000000E-13	4.49632000E-9	2.50566000E-6	7.64724644E-5
2.25265000E+5	9.29998196E+1	0.00000000E+0	0.00000000E+0	-2.90000000E-13	4.78364000E-9	2.68318000E-6	7.63158412E-5
2.28629000E+5	9.39996382E+1	0.00000000E+0	0.00000000E+0	-2.50000000E-13	5.11246000E-9	2.88550000E-6	7.62833001E-5
2.31939000E+5	9.50000203E+1	0.00000000E+0	0.00000000E+0	-5.70000000E-13	5.44155000E-9	3.08800000E-6	7.65855046E-5
2.35285000E+5	9.59995819E+1	0.00000000E+0	0.00000000E+0	-4.10000000E-13	5.72845000E-9	3.26672000E-6	7.62898238E-5
2.38476000E+5	9.70000022E+1	0.00000000E+0	0.00000000E+0	-2.80000000E-13	6.00145000E-9	3.43820000E-6	7.63521345E-5
2.41607000E+5	9.79997244E+1	0.00000000E+0	0.00000000E+0	-2.70000000E-13	6.27698000E-9	3.61175000E-6	7.66526343E-5
2.44835000E+5	9.89995990E+1	0.00000000E+0	0.00000000E+0	-4.20000000E-13	6.53401000E-9	3.77456000E-6	7.64734449E-5
2.53985000E+5	1.00000181E+2	0.00000000E+0	0.00000000E+0	-6.60000000E-13	6.71725000E-9	3.89728000E-6	7.63405205E-5
2.57128000E+5	1.00999480E+2	0.00000000E+0	0.00000000E+0	-1.70000000E-13	6.48138000E-9	3.77416000E-6	7.65378835E-5
2.60379000E+5	1.02000088E+2	0.00000000E+0	0.00000000E+0	-2.50000000E-13	1.21130000E-10	7.30100000E-8	7.66767891E-5
