G:\BEAR_storage\User_Experiments\20220317_arneodo\file(1)_Region 4__0079.txt
Ring Energy (GeV): 2
Lifetime (hours): 15.3642
Scan beginning: 3/21/2022	4:03:41 PM
Ring current (mA): 308.61
Source position: x (mm): 0.005 x' (mrad): 0.001 y (mm): 0 y' (mrad): 0.002
Scan end: 3/21/2022	4:26:20 PM
Ring current (mA): 308.48
Source position: x (mm): 0.006 x' (mrad): 0 y (mm): -0 y' (mrad): 0.001

SCAN TYPE: PHOTON ENERGY VS VAR_1 VS VAR_2

FILE INFO: FILE INFO:

SCAN PARAMETERS
waiting time (ms): 1000
Number of scans: 1
Current scan number: 1
DARK OFF 
PREDARK OFF 

SCAN PARAMETERS
Regions configuration: 
number of regions: 6
Mirror grating scan: on
Timed acquisition: off
Region 1:
Initial energy (eV): 40.000000
Final energy (eV): 72.000000
Delta energy (eV): 1.000000
Deviation angle choice: Higher order rejection
Deviation angle (°): NaN
Al filter
G1200 channel
range keithley B 20 nA
range keithley C 200 nA
range keithley A 20 nA
Var_1: PsiC 0.000000
Var_2: PhiM0.000000
Bias CEM (V): 0.000000
Bias Keithley B (V): -30.000000
Name region: 
Region 2:
Initial energy (eV): 70.000000
Final energy (eV): 102.000000
Delta energy (eV): 1.000000
Deviation angle choice: Higher order rejection
Deviation angle (°): NaN
Si filter
G1200 channel
range keithley B 20 nA
range keithley C 200 nA
range keithley A 20 nA
Var_1: PsiC 0.000000
Var_2: PhiM0.000000
Bias CEM (V): 0.000000
Bias Keithley B (V): -30.000000
Name region: 
Region 3:
Initial energy (eV): 98.000000
Final energy (eV): 260.000000
Delta energy (eV): 1.000000
Deviation angle choice: Higher order rejection
Deviation angle (°): NaN
Full Beam
G1200 channel
range keithley B 20 nA
range keithley C 200 nA
range keithley A 200 nA
Var_1: PsiC 0.000000
Var_2: PhiM0.000000
Bias CEM (V): 0.000000
Bias Keithley B (V): -30.000000
Name region: 
Region 4:
Initial energy (eV): 255.000000
Final energy (eV): 320.000000
Delta energy (eV): 1.000000
Deviation angle choice: Higher order rejection
Deviation angle (°): NaN
filter Ag 0.6 um
G1200 channel
range keithley B 200 pA
range keithley C 200 nA
range keithley A 200 pA
Var_1: PsiC 0.000000
Var_2: PhiM0.000000
Bias CEM (V): 0.000000
Bias Keithley B (V): -30.000000
Name region: 
Region 5:
Initial energy (eV): 315.000000
Final energy (eV): 1200.000000
Delta energy (eV): 5.000000
Deviation angle choice: Higher order rejection
Deviation angle (°): NaN
Full Beam
G1200 channel
range keithley B 20 nA
range keithley C 200 nA
range keithley A 20 nA
Var_1: PsiC 0.000000
Var_2: PhiM0.000000
Bias CEM (V): 0.000000
Bias Keithley B (V): -30.000000
Name region: 
Region 6:
Initial energy (eV): 1190.000000
Final energy (eV): 1500.000000
Delta energy (eV): 5.000000
Deviation angle choice: Higher order rejection
Deviation angle (°): NaN
filter Ag 0.6 um
G1200 channel
range keithley B 200 pA
range keithley C 200 nA
range keithley A 200 pA
Var_1: PsiC 0.000000
Var_2: PhiM0.000000
Bias CEM (V): 0.000000
Bias Keithley B (V): -30.000000
Name region: 

BEAR MONOCHROMATOR CONFIGURATION: 
Current Grating Position:     160137.80
Current Mirror Position: 298443.6
Current Grating: G1200
P2 phiz position:  0.0000
Mono axis position: 25.0000
Current Photon Energy (eV): 1500.015
Current Deviation Angle: 175.800
Vertical Exit Slits (um): 100.000
Exit slit y axis position: 1.3625
Horizontal Exit Slits (um):  889.156
Exit slit z axis position: 1.9229
Mitutoyo position (mm): 

Dose on sample (mJ/cm^2): NaN

ENERGY CALIBRATION:
offset grating G1200: yes
Delta 0 order G1200:  -1100.0
offset grating G1800: not
Delta 0 order G1800:  0.0
offset grating GNIM: not
Delta 0 order GNIM:  0.0
ZERO ORDER POSITIONS:
Grating G1200: Mirror position:  4938.0
Grating position: -105355.0
Grating G1800: 
Mirror position:  4938.0
Grating position: -106345.0
Grating GNIM: 
Mirror position:  10000.0
Grating position: 227300.0

Initial filter: Ag filter 0.6 um

EXPERIMENTAL CHAMBER CONFIGURATION: 
PsiC (deg):   -0.000186
Phi Analyzer (degrees): 89.993255
Theta Manipulator (degrees): -44.000040
Theta Analyzer (degrees): -135.001468
PhiM (degrees): -0.003077
XM (mm): -11.999075
YM (mm): 9.947225
ZM (mm): (Warning: for kinetic energy scans, 
this parameter is given in the scan settings) 
-6.001413
TiltM (°): 0.000138

ELECTRON ANALYZER CONFIGURATION: 
Current Kinetik energy (eV): 35.0
Mode: DE = COST
Pass Energy (eV):  100.000
CEM: ON
Bias Front-Back CEM (V): 3499.698
Bias Back-Collector CEM (V): 100.874
Bias Retard-Front CEM: 100.104COIL VALUES
Ix (amps):2.820
Iy (amps): 6.789
Iz (amps): 37.403

POLARIZATION SELECTOR CONFIGURATION:
Psi1 (rad): -0.001665535
Psi2 (rad): 0.001417093
Z min position (mm): 46.599650
DZ position (mm): 18.599100
Zmin 0 (mm): 65.700000
DZ0 (mm): 54.000000

BEAM SELECTOR CONFIGURATION:
Zmin position (mm): NaN
DZ position (mm): NaN
Y+ position (mm): NaN
Y- position (mm): NaN

CHANNEL ELECTRON MULTIPLIER CONFIGURATION:
CEM configured: OFF
Bias CEM: 0.000000

FLUORESCENCE DETECTOR CONFIGURATION:
Not configured

LUMINESCENCE MONOCHROMATOR CONFIGURATION:
Optical fiber position (mm): 0.000000
Optical fiber Switch inside: ON
Optical fiber Switch outside: ON
Monochromator wavelength (A): 0.000000
Limit Switches: ON

I0 MONITOR PARAMETERS:
I0 detector position(mm): NaN
Lower switch: OFF
Upper switch: OFF
Valve status:unread

PRESSURE PARAMETERS:
Monitor chamber pressure (mbar): 9.13e-10
Experimental chamber pressure -ION GAUGE-(mbar): 0.000000E+0

XMCD PARAMETERS:
Xmcd OFF
Xmcd Direction -
Xmcd current (A): 0.000000

Gated scan off

Instrument 1: AMMETER KEITHLEY 6517A B
Measure type: Current
range type: set range value
range value (ampere):  200 pA
Integration time:  set NPLC value
NPLC value: 10.000
Digital filter count: 2
SAMPLE BIAS (V): -30.000
Vsource: ON
Output Voltage value: 30.000
Vsource range: 1000 V

Range Keithley B changed to 20 nA

Range Keithley B changed to 200 pA

Range Keithley B changed to 20 nA

Range Keithley B changed to 200 pA

Keithley B Bias (V) changed to: 0.000000

Range Keithley B changed to 20 nA

Keithley B Bias (V) changed to: -30.000000

Range Keithley B changed to 200 pA

Range Keithley B changed to 20 nA

Range Keithley B changed to 200 pA

Range Keithley B changed to 20 nA

Range Keithley B changed to 200 pA

Range Keithley B changed to 20 nA

Instrument 2: AMMETER KEITHLEY 6517A A
Measure type: Current
range type: set range value
range value (ampere):  200 pA
Integration time:  set NPLC value
NPLC value: 10.000
Digital filter count: 2
Vsource: OFF
Output Voltage value: -0.000
Vsource range: 100 V
Trigger source: bus

Range Keithley A changed to 20 nA

Range Keithley A changed to 200 nA

Range Keithley A changed to 200 pA

Range Keithley A changed to 20 nA

Range Keithley A changed to 200 pA

Range Keithley A changed to 20 nA

Range Keithley A changed to 200 nA

Range Keithley A changed to 200 pA

Range Keithley A changed to 20 nA

Range Keithley A changed to 200 pA

Range Keithley A changed to 20 nA

Range Keithley A changed to 200 nA

Range Keithley A changed to 200 pA

Range Keithley A changed to 20 nA

Instrument 3: COUNTER ORTEC 996Integration time (sec): 1.000


Range Keithley C changed to 200 nA


Range Keithley C changed to 2 uA


Range Keithley C changed to 200 nA


________________________________________________________________________________

RelativeTime (msec)	Photon Energy	Var_1	Var_2	INSTR_1_Sample with Bias _(ampere ) 	INSTR_2_Monitor IM_(ampere)  	INSTR_3_Ortec 996 counts_(counts)	I_BPM_sum (Amps)	
________________________________________________________________________________

1.01439700E+6	2.55007492E+2	0.00000000E+0	0.00000000E+0	4.82600000E-13	8.76700000E-12	2.00000000E+0	8.95747888E-5
1.02032400E+6	2.55991607E+2	0.00000000E+0	0.00000000E+0	4.99700000E-13	9.18480000E-12	1.00000000E+0	8.95971494E-5
1.02548800E+6	2.57001355E+2	0.00000000E+0	0.00000000E+0	5.01300000E-13	9.38960000E-12	3.00000000E+0	8.95835536E-5
1.03064100E+6	2.58001472E+2	0.00000000E+0	0.00000000E+0	5.05500000E-13	9.55790000E-12	4.00000000E+0	8.94643294E-5
1.03577400E+6	2.59000140E+2	0.00000000E+0	0.00000000E+0	5.03300000E-13	9.69810000E-12	0.00000000E+0	8.92856704E-5
1.04090600E+6	2.59999903E+2	0.00000000E+0	0.00000000E+0	5.07700000E-13	9.83210000E-12	2.00000000E+0	8.93493282E-5
1.04600800E+6	2.60998633E+2	0.00000000E+0	0.00000000E+0	5.17200000E-13	9.96210000E-12	3.00000000E+0	8.94357579E-5
1.05113800E+6	2.61999615E+2	0.00000000E+0	0.00000000E+0	5.09900000E-13	1.00924000E-11	1.00000000E+0	8.92531859E-5
1.05628500E+6	2.63003294E+2	0.00000000E+0	0.00000000E+0	5.22500000E-13	1.02337000E-11	0.00000000E+0	8.94046741E-5
1.06143800E+6	2.63997637E+2	0.00000000E+0	0.00000000E+0	5.15400000E-13	1.03788000E-11	1.00000000E+0	8.92789113E-5
1.06656900E+6	2.64996863E+2	0.00000000E+0	0.00000000E+0	5.18500000E-13	1.05363000E-11	3.00000000E+0	8.93192994E-5
1.07167800E+6	2.65998976E+2	0.00000000E+0	0.00000000E+0	5.29800000E-13	1.06945000E-11	1.00000000E+0	8.92325001E-5
1.07680400E+6	2.67000360E+2	0.00000000E+0	0.00000000E+0	5.25100000E-13	1.08722000E-11	2.00000000E+0	8.93191355E-5
1.08193100E+6	2.68000213E+2	0.00000000E+0	0.00000000E+0	5.33900000E-13	1.10550000E-11	3.00000000E+0	8.92540353E-5
1.08702000E+6	2.68999778E+2	0.00000000E+0	0.00000000E+0	5.39000000E-13	1.12452000E-11	3.00000000E+0	8.91173976E-5
1.09216900E+6	2.69998987E+2	0.00000000E+0	0.00000000E+0	5.37900000E-13	1.14435000E-11	3.00000000E+0	8.95374911E-5
1.09728500E+6	2.71002574E+2	0.00000000E+0	0.00000000E+0	5.33100000E-13	1.16429000E-11	3.00000000E+0	8.90134888E-5
1.10236500E+6	2.71997048E+2	0.00000000E+0	0.00000000E+0	5.46600000E-13	1.18409000E-11	1.00000000E+0	8.93947678E-5
1.10746700E+6	2.72994399E+2	0.00000000E+0	0.00000000E+0	5.32100000E-13	1.20328000E-11	3.00000000E+0	8.93261837E-5
1.11258100E+6	2.74007424E+2	0.00000000E+0	0.00000000E+0	5.40600000E-13	1.22098000E-11	3.00000000E+0	8.91325640E-5
1.11770500E+6	2.74996953E+2	0.00000000E+0	0.00000000E+0	5.37900000E-13	1.23645000E-11	4.00000000E+0	8.93258171E-5
1.12283300E+6	2.76000224E+2	0.00000000E+0	0.00000000E+0	5.32700000E-13	1.25038000E-11	1.00000000E+0	8.94060897E-5
1.12867600E+6	2.77001709E+2	0.00000000E+0	0.00000000E+0	5.34800000E-13	1.26262000E-11	5.00000000E+0	8.90353756E-5
1.13378800E+6	2.78002858E+2	0.00000000E+0	0.00000000E+0	5.36700000E-13	1.27323000E-11	3.00000000E+0	8.94508379E-5
1.13892000E+6	2.79002573E+2	0.00000000E+0	0.00000000E+0	5.28100000E-13	1.28235000E-11	2.00000000E+0	8.92921495E-5
1.14406300E+6	2.79997126E+2	0.00000000E+0	0.00000000E+0	5.25600000E-13	1.29196000E-11	5.00000000E+0	8.92186510E-5
1.14917800E+6	2.81000240E+2	0.00000000E+0	0.00000000E+0	5.14000000E-13	1.30013000E-11	1.00000000E+0	8.91266065E-5
1.15430600E+6	2.81999768E+2	0.00000000E+0	0.00000000E+0	5.08500000E-13	1.31014000E-11	2.00000000E+0	8.89666514E-5
1.15944100E+6	2.83000620E+2	0.00000000E+0	0.00000000E+0	5.03700000E-13	1.31946000E-11	0.00000000E+0	8.88511048E-5
1.16454000E+6	2.83996237E+2	0.00000000E+0	0.00000000E+0	4.90100000E-13	1.32963000E-11	2.00000000E+0	8.92135488E-5
1.16965900E+6	2.84998664E+2	0.00000000E+0	0.00000000E+0	4.76300000E-13	1.33878000E-11	1.00000000E+0	8.92314242E-5
1.17476800E+6	2.86000417E+2	0.00000000E+0	0.00000000E+0	4.58600000E-13	1.34467000E-11	1.00000000E+0	8.91014742E-5
1.17990400E+6	2.87000888E+2	0.00000000E+0	0.00000000E+0	4.45000000E-13	1.34365000E-11	1.00000000E+0	8.92194646E-5
1.18501500E+6	2.87998635E+2	0.00000000E+0	0.00000000E+0	4.27600000E-13	1.33375000E-11	2.00000000E+0	8.94202458E-5
1.19015900E+6	2.89006314E+2	0.00000000E+0	0.00000000E+0	3.88700000E-13	1.37814000E-11	1.00000000E+0	8.95002025E-5
1.19528700E+6	2.89997836E+2	0.00000000E+0	0.00000000E+0	3.41800000E-13	1.52849000E-11	1.00000000E+0	8.96637815E-5
1.20046300E+6	2.90998110E+2	0.00000000E+0	0.00000000E+0	2.97200000E-13	2.53122000E-11	0.00000000E+0	8.92276721E-5
1.20556200E+6	2.91999289E+2	0.00000000E+0	0.00000000E+0	3.09900000E-13	3.21677000E-11	0.00000000E+0	8.94148665E-5
1.21067900E+6	2.92994878E+2	0.00000000E+0	0.00000000E+0	3.09500000E-13	3.44835000E-11	0.00000000E+0	8.96762895E-5
1.21577000E+6	2.93997145E+2	0.00000000E+0	0.00000000E+0	3.12700000E-13	4.28196000E-11	0.00000000E+0	8.91579794E-5
1.22085700E+6	2.95002888E+2	0.00000000E+0	0.00000000E+0	3.16200000E-13	4.52409000E-11	0.00000000E+0	8.95184117E-5
1.22598200E+6	2.96004414E+2	0.00000000E+0	0.00000000E+0	3.10900000E-13	4.50286000E-11	1.00000000E+0	8.95553576E-5
1.23109000E+6	2.96998311E+2	0.00000000E+0	0.00000000E+0	3.14800000E-13	4.27929000E-11	0.00000000E+0	8.95715641E-5
1.23618600E+6	2.98000393E+2	0.00000000E+0	0.00000000E+0	3.13500000E-13	4.12247000E-11	0.00000000E+0	8.95290243E-5
1.24126700E+6	2.98995674E+2	0.00000000E+0	0.00000000E+0	3.18200000E-13	4.24822000E-11	0.00000000E+0	8.94296455E-5
1.24638800E+6	3.00000175E+2	0.00000000E+0	0.00000000E+0	3.27000000E-13	4.49278000E-11	0.00000000E+0	8.93431919E-5
1.25148900E+6	3.00994208E+2	0.00000000E+0	0.00000000E+0	3.25400000E-13	4.71939000E-11	2.00000000E+0	8.94618230E-5
1.25663100E+6	3.02000394E+2	0.00000000E+0	0.00000000E+0	3.33000000E-13	4.91188000E-11	0.00000000E+0	8.93032031E-5
1.26175500E+6	3.03007325E+2	0.00000000E+0	0.00000000E+0	3.34600000E-13	5.06568000E-11	1.00000000E+0	8.94286352E-5
1.26688800E+6	3.03999192E+2	0.00000000E+0	0.00000000E+0	3.45400000E-13	5.19433000E-11	0.00000000E+0	8.93704759E-5
1.27200700E+6	3.05003092E+2	0.00000000E+0	0.00000000E+0	3.49900000E-13	5.31947000E-11	0.00000000E+0	8.94246446E-5
1.27713200E+6	3.06001553E+2	0.00000000E+0	0.00000000E+0	3.53200000E-13	5.45827000E-11	1.00000000E+0	8.93467712E-5
1.28227200E+6	3.07000207E+2	0.00000000E+0	0.00000000E+0	3.52000000E-13	5.57734000E-11	0.00000000E+0	8.93125730E-5
1.28740000E+6	3.07997776E+2	0.00000000E+0	0.00000000E+0	3.60000000E-13	5.70671000E-11	1.00000000E+0	8.91663866E-5
1.29249300E+6	3.09009042E+2	0.00000000E+0	0.00000000E+0	3.64900000E-13	5.84150000E-11	1.00000000E+0	8.96724718E-5
1.29763600E+6	3.09996377E+2	0.00000000E+0	0.00000000E+0	3.63400000E-13	5.95933000E-11	0.00000000E+0	8.92853545E-5
1.30276600E+6	3.11006445E+2	0.00000000E+0	0.00000000E+0	3.73200000E-13	6.08113000E-11	1.00000000E+0	8.93493520E-5
1.30788900E+6	3.11989131E+2	0.00000000E+0	0.00000000E+0	3.81900000E-13	6.21173000E-11	0.00000000E+0	8.93507945E-5
1.31300500E+6	3.13003850E+2	0.00000000E+0	0.00000000E+0	3.82400000E-13	6.35799000E-11	2.00000000E+0	8.92669725E-5
1.31809200E+6	3.14002604E+2	0.00000000E+0	0.00000000E+0	3.87000000E-13	6.51489000E-11	0.00000000E+0	8.91212212E-5
1.32323900E+6	3.15002164E+2	0.00000000E+0	0.00000000E+0	4.06200000E-13	6.68675000E-11	1.00000000E+0	8.94288080E-5
1.32838700E+6	3.16004987E+2	0.00000000E+0	0.00000000E+0	4.05100000E-13	6.87456000E-11	2.00000000E+0	8.90383320E-5
1.33349700E+6	3.17000897E+2	0.00000000E+0	0.00000000E+0	4.09900000E-13	7.05703000E-11	1.00000000E+0	8.93032151E-5
1.33861800E+6	3.17997442E+2	0.00000000E+0	0.00000000E+0	4.23200000E-13	7.21558000E-11	0.00000000E+0	8.91726392E-5
1.34374700E+6	3.19005498E+2	0.00000000E+0	0.00000000E+0	4.24200000E-13	7.34095000E-11	3.00000000E+0	8.91132908E-5
1.34887300E+6	3.20001142E+2	0.00000000E+0	0.00000000E+0	4.26900000E-13	7.43162000E-11	3.00000000E+0	8.93650489E-5
