G:\BEAR_storage\User_Experiments\20220317_arneodo\file(1)_Region 4__0085.txt
Ring Energy (GeV): 2
Lifetime (hours): 15.7742
Scan beginning: 3/22/2022	2:55:31 AM
Ring current (mA): 309.17
Source position: x (mm): 0.008 x' (mrad): -0.001 y (mm): -0.001 y' (mrad): 0.002
Scan end: 3/22/2022	3:19:02 AM
Ring current (mA): 309.34
Source position: x (mm): 0.008 x' (mrad): -0 y (mm): 0.001 y' (mrad): 0.002

SCAN TYPE: PHOTON ENERGY VS VAR_1 VS VAR_2

FILE INFO: FILE INFO:

SCAN PARAMETERS
waiting time (ms): 1000
Number of scans: 1
Current scan number: 1
DARK OFF 
PREDARK OFF 

SCAN PARAMETERS
Regions configuration: 
number of regions: 7
Mirror grating scan: on
Timed acquisition: off
Region 1:
Initial energy (eV): 3.000000
Final energy (eV): 4.500000
Delta energy (eV): 0.100000
Deviation angle choice: Degrees: 
Deviation angle (°): NaN
B270 window
GNIM channel
range keithley B 200 pA
range keithley C 200 pA
range keithley A 200 pA
Var_1: PsiC 0.000000
Var_2: PhiM0.000000
Bias CEM (V): 0.000000
Bias Keithley B (V): -30.000000
Name region: 
Region 2:
Initial energy (eV): 4.000000
Final energy (eV): 8.000000
Delta energy (eV): 0.100000
Deviation angle choice: Degrees: 
Deviation angle (°): NaN
SiO2 window
GNIM channel
range keithley B 200 pA
range keithley C 200 pA
range keithley A 200 pA
Var_1: PsiC 0.000000
Var_2: PhiM0.000000
Bias CEM (V): 0.000000
Bias Keithley B (V): -30.000000
Name region: 
Region 3:
Initial energy (eV): 7.000000
Final energy (eV): 12.000000
Delta energy (eV): 0.100000
Deviation angle choice: Degrees: 
Deviation angle (°): NaN
filter LiF window
GNIM channel
range keithley B 200 pA
range keithley C 200 pA
range keithley A 200 pA
Var_1: PsiC 0.000000
Var_2: PhiM0.000000
Bias CEM (V): 0.000000
Bias Keithley B (V): -30.000000
Name region: 
Region 4:
Initial energy (eV): 11.000000
Final energy (eV): 18.000000
Delta energy (eV): 0.100000
Deviation angle choice: Degrees: 
Deviation angle (°): NaN
In filter
GNIM channel
range keithley B 200 pA
range keithley C 200 pA
range keithley A 200 pA
Var_1: PsiC 0.000000
Var_2: PhiM0.000000
Bias CEM (V): 0.000000
Bias Keithley B (V): -30.000000
Name region: 
Region 5:
Initial energy (eV): 15.000000
Final energy (eV): 25.000000
Delta energy (eV): 0.100000
Deviation angle choice: Degrees: 
Deviation angle (°): NaN
Sn filter
GNIM channel
range keithley B 200 pA
range keithley C 200 pA
range keithley A 200 pA
Var_1: PsiC 0.000000
Var_2: PhiM0.000000
Bias CEM (V): 0.000000
Bias Keithley B (V): -30.000000
Name region: 
Region 6:
Initial energy (eV): 23.000000
Final energy (eV): 45.000000
Delta energy (eV): 0.100000
Deviation angle choice: Degrees: 
Deviation angle (°): NaN
Full Beam
GNIM channel
range keithley B 20 nA
range keithley C 200 pA
range keithley A 20 nA
Var_1: PsiC 0.000000
Var_2: PhiM0.000000
Bias CEM (V): 0.000000
Bias Keithley B (V): -30.000000
Name region: 
Region 7:
Initial energy (eV): 23.000000
Final energy (eV): 45.000000
Delta energy (eV): 0.100000
Deviation angle choice: Degrees: 
Deviation angle (°): NaN
Al filter
GNIM channel
range keithley B 20 nA
range keithley C 200 pA
range keithley A 20 nA
Var_1: PsiC 0.000000
Var_2: PhiM0.000000
Bias CEM (V): 0.000000
Bias Keithley B (V): -30.000000
Name region: 

BEAR MONOCHROMATOR CONFIGURATION: 
Current Grating Position:     200056.80
Current Mirror Position: 10000.0
Current Grating: GNIM
P2 phiz position:  -0.0195
Mono axis position: 73.5000
Current Photon Energy (eV): 45.000
Current Deviation Angle: 29.905
Vertical Exit Slits (um): 100.000
Exit slit y axis position: 1.3625
Horizontal Exit Slits (um):  889.156
Exit slit z axis position: 1.9229
Mitutoyo position (mm): 

Dose on sample (mJ/cm^2): NaN

ENERGY CALIBRATION:
offset grating G1200: yes
Delta 0 order G1200:  -1100.0
offset grating G1800: not
Delta 0 order G1800:  0.0
offset grating GNIM: not
Delta 0 order GNIM:  0.0
ZERO ORDER POSITIONS:
Grating G1200: Mirror position:  4938.0
Grating position: -105355.0
Grating G1800: 
Mirror position:  4938.0
Grating position: -106345.0
Grating GNIM: 
Mirror position:  10000.0
Grating position: 227300.0

Initial filter: Al filter

EXPERIMENTAL CHAMBER CONFIGURATION: 
PsiC (deg):   -0.000186
Phi Analyzer (degrees): 89.993255
Theta Manipulator (degrees): -44.000040
Theta Analyzer (degrees): -135.001468
PhiM (degrees): -0.003077
XM (mm): 0.000913
YM (mm): 7.907125
ZM (mm): (Warning: for kinetic energy scans, 
this parameter is given in the scan settings) 
-10.201325
TiltM (°): 0.000138

ELECTRON ANALYZER CONFIGURATION: 
Current Kinetik energy (eV): 35.0
Mode: DE = COST
Pass Energy (eV):  100.000
CEM: ON
Bias Front-Back CEM (V): 3499.698
Bias Back-Collector CEM (V): 100.874
Bias Retard-Front CEM: 100.104COIL VALUES
Ix (amps):2.820
Iy (amps): 6.789
Iz (amps): 37.403

POLARIZATION SELECTOR CONFIGURATION:
Psi1 (rad): -0.001665535
Psi2 (rad): 0.001417093
Z min position (mm): 46.599650
DZ position (mm): 18.599100
Zmin 0 (mm): 65.700000
DZ0 (mm): 54.000000

BEAM SELECTOR CONFIGURATION:
Zmin position (mm): NaN
DZ position (mm): NaN
Y+ position (mm): NaN
Y- position (mm): NaN

CHANNEL ELECTRON MULTIPLIER CONFIGURATION:
CEM configured: OFF
Bias CEM: 0.000000

FLUORESCENCE DETECTOR CONFIGURATION:
Not configured

LUMINESCENCE MONOCHROMATOR CONFIGURATION:
Optical fiber position (mm): 0.000000
Optical fiber Switch inside: ON
Optical fiber Switch outside: ON
Monochromator wavelength (A): 0.000000
Limit Switches: ON

I0 MONITOR PARAMETERS:
I0 detector position(mm): NaN
Lower switch: OFF
Upper switch: OFF
Valve status:unread

PRESSURE PARAMETERS:
Monitor chamber pressure (mbar): 9.057e-10
Experimental chamber pressure -ION GAUGE-(mbar): 0.000000E+0

XMCD PARAMETERS:
Xmcd OFF
Xmcd Direction -
Xmcd current (A): 0.000000

Gated scan off

Instrument 1: AMMETER KEITHLEY 6517A B
Measure type: Current
range type: set range value
range value (ampere):  200 pA
Integration time:  set NPLC value
NPLC value: 10.000
Digital filter count: 2
SAMPLE BIAS (V): -30.000
Vsource: ON
Output Voltage value: 30.000
Vsource range: 1000 V

Range Keithley B changed to 20 nA

Range Keithley B changed to 200 pA

Range Keithley B changed to 20 nA

Range Keithley B changed to 200 pA

Keithley B Bias (V) changed to: 0.000000

Range Keithley B changed to 20 nA

Keithley B Bias (V) changed to: -30.000000

Range Keithley B changed to 200 pA

Range Keithley B changed to 20 nA

Range Keithley B changed to 200 pA

Range Keithley B changed to 20 nA

Range Keithley B changed to 200 pA

Range Keithley B changed to 20 nA

Range Keithley B changed to 200 pA

Keithley B Bias (V) changed to: 0.000000

Keithley B Bias (V) changed to: -30.000000

Range Keithley B changed to 20 nA

Range Keithley B changed to 200 pA

Range Keithley B changed to 20 nA

Range Keithley B changed to 200 pA

Range Keithley B changed to 20 nA

Range Keithley B changed to 200 pA

Range Keithley B changed to 20 nA

Range Keithley B changed to 200 pA

Instrument 2: AMMETER KEITHLEY 6517A A
Measure type: Current
range type: set range value
range value (ampere):  200 pA
Integration time:  set NPLC value
NPLC value: 10.000
Digital filter count: 2
Vsource: OFF
Output Voltage value: -0.000
Vsource range: 100 V
Trigger source: bus

Range Keithley A changed to 20 nA

Range Keithley A changed to 200 nA

Range Keithley A changed to 200 pA

Range Keithley A changed to 20 nA

Range Keithley A changed to 200 pA

Range Keithley A changed to 20 nA

Range Keithley A changed to 200 nA

Range Keithley A changed to 200 pA

Range Keithley A changed to 20 nA

Range Keithley A changed to 200 pA

Range Keithley A changed to 20 nA

Range Keithley A changed to 200 nA

Range Keithley A changed to 200 pA

Range Keithley A changed to 20 nA

Range Keithley A changed to 200 pA

Range Keithley A changed to 20 nA

Range Keithley A changed to 200 pA

Range Keithley A changed to 20 nA

Range Keithley A changed to 200 pA

Range Keithley A changed to 20 nA

Range Keithley A changed to 200 pA

Range Keithley A changed to 20 nA

Range Keithley A changed to 200 pA

Range Keithley A changed to 20 nA

Range Keithley A changed to 200 pA

Instrument 3: COUNTER ORTEC 996Integration time (sec): 1.000


Range Keithley C changed to 200 nA


Range Keithley C changed to 2 uA


Range Keithley C changed to 200 nA


Range Keithley C changed to 2 uA


Range Keithley C changed to 200 pA


________________________________________________________________________________

RelativeTime (msec)	Photon Energy	Var_1	Var_2	INSTR_1_Sample with Bias _(ampere ) 	INSTR_2_Monitor IM_(ampere)  	INSTR_3_Ortec 996 counts_(counts)	I_BPM_sum (Amps)	
________________________________________________________________________________

9.54120000E+5	1.10000435E+1	0.00000000E+0	0.00000000E+0	2.77200000E-13	9.15000000E-14	2.00000000E+0	8.96309065E-5
9.61541000E+5	1.10999133E+1	0.00000000E+0	0.00000000E+0	2.75200000E-13	8.56000000E-14	1.00000000E+0	8.96910238E-5
9.68067000E+5	1.11999113E+1	0.00000000E+0	0.00000000E+0	2.73300000E-13	9.35000000E-14	0.00000000E+0	8.95919668E-5
9.74707000E+5	1.13000579E+1	0.00000000E+0	0.00000000E+0	2.75400000E-13	1.08000000E-13	1.00000000E+0	8.93841850E-5
9.81278000E+5	1.13999829E+1	0.00000000E+0	0.00000000E+0	2.80100000E-13	1.43200000E-13	2.00000000E+0	8.96867114E-5
9.87824000E+5	1.15000265E+1	0.00000000E+0	0.00000000E+0	2.83300000E-13	2.13700000E-13	0.00000000E+0	8.95305353E-5
9.94358000E+5	1.15999721E+1	0.00000000E+0	0.00000000E+0	3.01700000E-13	2.96000000E-13	1.00000000E+0	8.93536853E-5
1.00087400E+6	1.17000480E+1	0.00000000E+0	0.00000000E+0	3.04900000E-13	3.44300000E-13	1.00000000E+0	8.97048878E-5
1.00738400E+6	1.17999767E+1	0.00000000E+0	0.00000000E+0	3.24800000E-13	3.82200000E-13	0.00000000E+0	8.94149499E-5
1.01394600E+6	1.19000069E+1	0.00000000E+0	0.00000000E+0	3.25000000E-13	4.34400000E-13	7.00000000E+0	8.96315175E-5
1.02051600E+6	1.20000294E+1	0.00000000E+0	0.00000000E+0	3.38900000E-13	5.31300000E-13	9.00000000E+0	8.94550072E-5
1.02702500E+6	1.20999648E+1	0.00000000E+0	0.00000000E+0	3.59000000E-13	6.83000000E-13	2.00000000E+0	8.98170221E-5
1.03338400E+6	1.22000095E+1	0.00000000E+0	0.00000000E+0	3.81200000E-13	8.86800000E-13	5.00000000E+0	8.98257482E-5
1.03976300E+6	1.23000162E+1	0.00000000E+0	0.00000000E+0	4.00600000E-13	1.09280000E-12	5.00000000E+0	8.94127863E-5
1.04615800E+6	1.24000298E+1	0.00000000E+0	0.00000000E+0	4.25300000E-13	1.22250000E-12	4.00000000E+0	8.91102361E-5
1.05253000E+6	1.24999722E+1	0.00000000E+0	0.00000000E+0	4.10800000E-13	1.24660000E-12	6.00000000E+0	8.90424149E-5
1.05891700E+6	1.26000078E+1	0.00000000E+0	0.00000000E+0	4.15100000E-13	1.20710000E-12	1.00000000E+1	8.92975735E-5
1.06532300E+6	1.27000098E+1	0.00000000E+0	0.00000000E+0	4.09300000E-13	1.16270000E-12	5.00000000E+0	8.92345475E-5
1.07173600E+6	1.28000185E+1	0.00000000E+0	0.00000000E+0	4.09400000E-13	1.14890000E-12	3.00000000E+0	8.95775544E-5
1.07798000E+6	1.28999693E+1	0.00000000E+0	0.00000000E+0	4.23200000E-13	1.18750000E-12	4.00000000E+0	8.93757718E-5
1.08435700E+6	1.30000431E+1	0.00000000E+0	0.00000000E+0	4.24500000E-13	1.28580000E-12	1.20000000E+1	8.93878686E-5
1.09059800E+6	1.30999849E+1	0.00000000E+0	0.00000000E+0	4.51000000E-13	1.45570000E-12	3.00000000E+0	8.92773288E-5
1.09684100E+6	1.31999943E+1	0.00000000E+0	0.00000000E+0	4.68900000E-13	1.68870000E-12	5.00000000E+0	8.89897631E-5
1.10307400E+6	1.33000102E+1	0.00000000E+0	0.00000000E+0	4.96600000E-13	1.95930000E-12	8.00000000E+0	8.94469606E-5
1.10931200E+6	1.33999685E+1	0.00000000E+0	0.00000000E+0	5.22600000E-13	2.21760000E-12	5.00000000E+0	8.93038499E-5
1.11555200E+6	1.35000258E+1	0.00000000E+0	0.00000000E+0	5.44400000E-13	2.41150000E-12	6.00000000E+0	8.90374916E-5
1.12183400E+6	1.36000166E+1	0.00000000E+0	0.00000000E+0	5.59400000E-13	2.51560000E-12	5.00000000E+0	8.95797330E-5
1.12809900E+6	1.37000119E+1	0.00000000E+0	0.00000000E+0	5.49800000E-13	2.53870000E-12	7.00000000E+0	8.90419917E-5
1.13437500E+6	1.38000100E+1	0.00000000E+0	0.00000000E+0	5.55800000E-13	2.51910000E-12	1.00000000E+1	8.90696513E-5
1.14063400E+6	1.39000103E+1	0.00000000E+0	0.00000000E+0	5.50100000E-13	2.49220000E-12	5.00000000E+0	8.90396373E-5
1.14690600E+6	1.40000128E+1	0.00000000E+0	0.00000000E+0	5.46700000E-13	2.49290000E-12	8.00000000E+0	8.91454952E-5
1.15321900E+6	1.41000025E+1	0.00000000E+0	0.00000000E+0	5.57000000E-13	2.54060000E-12	1.30000000E+1	8.93461572E-5
1.15944400E+6	1.42000466E+1	0.00000000E+0	0.00000000E+0	5.73400000E-13	2.64750000E-12	7.00000000E+0	8.92661290E-5
1.16568500E+6	1.42999831E+1	0.00000000E+0	0.00000000E+0	5.93500000E-13	2.82300000E-12	1.00000000E+1	8.91785966E-5
1.17195300E+6	1.43999636E+1	0.00000000E+0	0.00000000E+0	6.18500000E-13	3.06360000E-12	5.00000000E+0	8.92735170E-5
1.17819500E+6	1.45000291E+1	0.00000000E+0	0.00000000E+0	6.48200000E-13	3.33690000E-12	1.60000000E+1	8.97452134E-5
1.18445900E+6	1.46000317E+1	0.00000000E+0	0.00000000E+0	6.74100000E-13	3.60870000E-12	1.50000000E+1	8.95662653E-5
1.19069200E+6	1.46999577E+1	0.00000000E+0	0.00000000E+0	7.01200000E-13	3.84220000E-12	1.50000000E+1	8.96602797E-5
1.19685200E+6	1.48000258E+1	0.00000000E+0	0.00000000E+0	7.24400000E-13	4.00210000E-12	1.60000000E+1	8.94875305E-5
1.20301800E+6	1.48999779E+1	0.00000000E+0	0.00000000E+0	7.28900000E-13	4.08610000E-12	1.50000000E+1	8.95599532E-5
1.20920000E+6	1.50000022E+1	0.00000000E+0	0.00000000E+0	7.26600000E-13	4.09130000E-12	2.10000000E+1	8.97217887E-5
1.21531500E+6	1.50999811E+1	0.00000000E+0	0.00000000E+0	7.22400000E-13	4.05940000E-12	2.20000000E+1	8.92679112E-5
1.22122200E+6	1.51999989E+1	0.00000000E+0	0.00000000E+0	7.21000000E-13	4.02710000E-12	1.50000000E+1	8.95786124E-5
1.22806300E+6	1.53000115E+1	0.00000000E+0	0.00000000E+0	7.12700000E-13	4.01970000E-12	8.00000000E+0	8.93252896E-5
1.23398900E+6	1.54000117E+1	0.00000000E+0	0.00000000E+0	7.15800000E-13	4.05940000E-12	2.30000000E+1	8.92999279E-5
1.24008500E+6	1.54999926E+1	0.00000000E+0	0.00000000E+0	7.34500000E-13	4.15380000E-12	2.10000000E+1	8.94284266E-5
1.24620000E+6	1.56000472E+1	0.00000000E+0	0.00000000E+0	7.46600000E-13	4.29240000E-12	2.40000000E+1	8.94511210E-5
1.25210500E+6	1.56999717E+1	0.00000000E+0	0.00000000E+0	7.66000000E-13	4.44430000E-12	1.50000000E+1	8.92991202E-5
1.25825900E+6	1.58000218E+1	0.00000000E+0	0.00000000E+0	7.71500000E-13	4.57030000E-12	2.40000000E+1	8.92098861E-5
1.26442000E+6	1.58999918E+1	0.00000000E+0	0.00000000E+0	7.78600000E-13	4.61610000E-12	1.70000000E+1	8.95793515E-5
1.27036700E+6	1.60000215E+1	0.00000000E+0	0.00000000E+0	7.66100000E-13	4.53880000E-12	2.10000000E+1	8.93956112E-5
1.27647300E+6	1.61000256E+1	0.00000000E+0	0.00000000E+0	7.36600000E-13	4.32710000E-12	2.10000000E+1	8.92904865E-5
1.28237000E+6	1.62000439E+1	0.00000000E+0	0.00000000E+0	7.04200000E-13	3.97930000E-12	1.50000000E+1	8.92625438E-5
1.28848400E+6	1.62999447E+1	0.00000000E+0	0.00000000E+0	6.57200000E-13	3.47730000E-12	1.40000000E+1	8.92778861E-5
1.29462900E+6	1.64000304E+1	0.00000000E+0	0.00000000E+0	5.73200000E-13	2.63360000E-12	1.20000000E+1	8.95365196E-5
1.30054200E+6	1.64999734E+1	0.00000000E+0	0.00000000E+0	4.37200000E-13	1.30880000E-12	5.00000000E+0	8.96478283E-5
1.30667800E+6	1.66000160E+1	0.00000000E+0	0.00000000E+0	3.30100000E-13	4.55300000E-13	5.00000000E+0	8.95848262E-5
1.31280200E+6	1.67000029E+1	0.00000000E+0	0.00000000E+0	3.07100000E-13	2.38000000E-13	2.00000000E+0	8.95368385E-5
1.31867900E+6	1.68000024E+1	0.00000000E+0	0.00000000E+0	2.97600000E-13	1.82500000E-13	2.00000000E+0	8.94134300E-5
1.32465400E+6	1.68999696E+1	0.00000000E+0	0.00000000E+0	2.99300000E-13	1.70700000E-13	5.00000000E+0	8.91084032E-5
1.33045500E+6	1.69999764E+1	0.00000000E+0	0.00000000E+0	3.02400000E-13	1.73900000E-13	1.00000000E+0	8.92773049E-5
1.33641400E+6	1.70999553E+1	0.00000000E+0	0.00000000E+0	3.00100000E-13	1.62900000E-13	4.00000000E+0	8.97029864E-5
1.34244200E+6	1.72000534E+1	0.00000000E+0	0.00000000E+0	3.07100000E-13	1.67600000E-13	7.00000000E+0	8.93300133E-5
1.34823500E+6	1.73000340E+1	0.00000000E+0	0.00000000E+0	3.07400000E-13	1.57500000E-13	2.00000000E+0	8.96823245E-5
1.35424000E+6	1.73998972E+1	0.00000000E+0	0.00000000E+0	3.02600000E-13	1.44300000E-13	8.00000000E+0	8.91690599E-5
1.36023200E+6	1.74999941E+1	0.00000000E+0	0.00000000E+0	2.97900000E-13	1.22800000E-13	6.00000000E+0	8.93888580E-5
1.36605400E+6	1.76001355E+1	0.00000000E+0	0.00000000E+0	2.96000000E-13	1.15100000E-13	4.00000000E+0	8.90839504E-5
1.37205500E+6	1.76999703E+1	0.00000000E+0	0.00000000E+0	2.93800000E-13	1.16900000E-13	3.00000000E+0	8.95219969E-5
1.37784700E+6	1.78000121E+1	0.00000000E+0	0.00000000E+0	3.02000000E-13	1.17800000E-13	4.00000000E+0	8.93040674E-5
1.38383500E+6	1.78999868E+1	0.00000000E+0	0.00000000E+0	2.96300000E-13	1.17400000E-13	8.00000000E+0	8.95693200E-5
1.38984500E+6	1.80000318E+1	0.00000000E+0	0.00000000E+0	3.03600000E-13	1.20400000E-13	1.00000000E+1	8.95932871E-5
