G:\BEAR_storage\User_Experiments\20220317_arneodo\file(1)_Region 2__0082.txt
Ring Energy (GeV): 2
Lifetime (hours): 0
Scan beginning: 3/21/2022	9:34:35 PM
Ring current (mA): 309.4
Source position: x (mm): 0.007 x' (mrad): 0.001 y (mm): -0.001 y' (mrad): -0.001
Scan end: 3/21/2022	9:44:26 PM
Ring current (mA): 308.75
Source position: x (mm): 0.008 x' (mrad): -0 y (mm): -0.001 y' (mrad): -0.001

SCAN TYPE: PHOTON ENERGY VS VAR_1 VS VAR_2

FILE INFO: FILE INFO:

SCAN PARAMETERS
waiting time (ms): 1000
Number of scans: 1
Current scan number: 1
DARK OFF 
PREDARK OFF 

SCAN PARAMETERS
Regions configuration: 
number of regions: 7
Mirror grating scan: on
Timed acquisition: off
Region 1:
Initial energy (eV): 3.000000
Final energy (eV): 4.500000
Delta energy (eV): 0.100000
Deviation angle choice: Degrees: 
Deviation angle (°): NaN
B270 window
GNIM channel
range keithley B 200 pA
range keithley C 200 pA
range keithley A 200 pA
Var_1: PsiC 0.000000
Var_2: PhiM0.000000
Bias CEM (V): 0.000000
Bias Keithley B (V): -30.000000
Name region: 
Region 2:
Initial energy (eV): 4.000000
Final energy (eV): 8.000000
Delta energy (eV): 0.100000
Deviation angle choice: Degrees: 
Deviation angle (°): NaN
SiO2 window
GNIM channel
range keithley B 200 pA
range keithley C 200 pA
range keithley A 200 pA
Var_1: PsiC 0.000000
Var_2: PhiM0.000000
Bias CEM (V): 0.000000
Bias Keithley B (V): -30.000000
Name region: 
Region 3:
Initial energy (eV): 7.000000
Final energy (eV): 12.000000
Delta energy (eV): 0.100000
Deviation angle choice: Degrees: 
Deviation angle (°): NaN
filter LiF window
GNIM channel
range keithley B 200 pA
range keithley C 200 pA
range keithley A 200 pA
Var_1: PsiC 0.000000
Var_2: PhiM0.000000
Bias CEM (V): 0.000000
Bias Keithley B (V): -30.000000
Name region: 
Region 4:
Initial energy (eV): 11.000000
Final energy (eV): 18.000000
Delta energy (eV): 0.100000
Deviation angle choice: Degrees: 
Deviation angle (°): NaN
In filter
GNIM channel
range keithley B 200 pA
range keithley C 200 pA
range keithley A 200 pA
Var_1: PsiC 0.000000
Var_2: PhiM0.000000
Bias CEM (V): 0.000000
Bias Keithley B (V): -30.000000
Name region: 
Region 5:
Initial energy (eV): 15.000000
Final energy (eV): 25.000000
Delta energy (eV): 0.100000
Deviation angle choice: Degrees: 
Deviation angle (°): NaN
Sn filter
GNIM channel
range keithley B 200 pA
range keithley C 200 pA
range keithley A 200 pA
Var_1: PsiC 0.000000
Var_2: PhiM0.000000
Bias CEM (V): 0.000000
Bias Keithley B (V): -30.000000
Name region: 
Region 6:
Initial energy (eV): 23.000000
Final energy (eV): 45.000000
Delta energy (eV): 0.100000
Deviation angle choice: Degrees: 
Deviation angle (°): NaN
Full Beam
GNIM channel
range keithley B 20 nA
range keithley C 200 pA
range keithley A 20 nA
Var_1: PsiC 0.000000
Var_2: PhiM0.000000
Bias CEM (V): 0.000000
Bias Keithley B (V): -30.000000
Name region: 
Region 7:
Initial energy (eV): 23.000000
Final energy (eV): 45.000000
Delta energy (eV): 0.100000
Deviation angle choice: Degrees: 
Deviation angle (°): NaN
Al filter
GNIM channel
range keithley B 20 nA
range keithley C 200 pA
range keithley A 20 nA
Var_1: PsiC 0.000000
Var_2: PhiM0.000000
Bias CEM (V): 0.000000
Bias Keithley B (V): -30.000000
Name region: 

BEAR MONOCHROMATOR CONFIGURATION: 
Current Grating Position:     200056.70
Current Mirror Position: 9999.9
Current Grating: GNIM
P2 phiz position:  -0.0195
Mono axis position: 73.5000
Current Photon Energy (eV): 45.000
Current Deviation Angle: 29.905
Vertical Exit Slits (um): 100.000
Exit slit y axis position: 1.3625
Horizontal Exit Slits (um):  889.156
Exit slit z axis position: 1.9229
Mitutoyo position (mm): 

Dose on sample (mJ/cm^2): NaN

ENERGY CALIBRATION:
offset grating G1200: yes
Delta 0 order G1200:  -1100.0
offset grating G1800: not
Delta 0 order G1800:  0.0
offset grating GNIM: not
Delta 0 order GNIM:  0.0
ZERO ORDER POSITIONS:
Grating G1200: Mirror position:  4938.0
Grating position: -105355.0
Grating G1800: 
Mirror position:  4938.0
Grating position: -106345.0
Grating GNIM: 
Mirror position:  10000.0
Grating position: 227300.0

Initial filter: Al filter

EXPERIMENTAL CHAMBER CONFIGURATION: 
PsiC (deg):   -0.000186
Phi Analyzer (degrees): 89.993255
Theta Manipulator (degrees): -44.000040
Theta Analyzer (degrees): -135.001468
PhiM (degrees): -0.003077
XM (mm): -4.499087
YM (mm): 22.946963
ZM (mm): (Warning: for kinetic energy scans, 
this parameter is given in the scan settings) 
-14.001363
TiltM (°): 0.000138

ELECTRON ANALYZER CONFIGURATION: 
Current Kinetik energy (eV): 35.0
Mode: DE = COST
Pass Energy (eV):  100.000
CEM: ON
Bias Front-Back CEM (V): 3499.698
Bias Back-Collector CEM (V): 100.874
Bias Retard-Front CEM: 100.104COIL VALUES
Ix (amps):2.820
Iy (amps): 6.789
Iz (amps): 37.403

POLARIZATION SELECTOR CONFIGURATION:
Psi1 (rad): -0.001665535
Psi2 (rad): 0.001417093
Z min position (mm): 46.599650
DZ position (mm): 18.599100
Zmin 0 (mm): 65.700000
DZ0 (mm): 54.000000

BEAM SELECTOR CONFIGURATION:
Zmin position (mm): NaN
DZ position (mm): NaN
Y+ position (mm): NaN
Y- position (mm): NaN

CHANNEL ELECTRON MULTIPLIER CONFIGURATION:
CEM configured: OFF
Bias CEM: 0.000000

FLUORESCENCE DETECTOR CONFIGURATION:
Not configured

LUMINESCENCE MONOCHROMATOR CONFIGURATION:
Optical fiber position (mm): 0.000000
Optical fiber Switch inside: ON
Optical fiber Switch outside: ON
Monochromator wavelength (A): 0.000000
Limit Switches: ON

I0 MONITOR PARAMETERS:
I0 detector position(mm): NaN
Lower switch: OFF
Upper switch: OFF
Valve status:unread

PRESSURE PARAMETERS:
Monitor chamber pressure (mbar): 9.041e-10
Experimental chamber pressure -ION GAUGE-(mbar): 0.000000E+0

XMCD PARAMETERS:
Xmcd OFF
Xmcd Direction -
Xmcd current (A): 0.000000

Gated scan off

Instrument 1: AMMETER KEITHLEY 6517A B
Measure type: Current
range type: set range value
range value (ampere):  200 pA
Integration time:  set NPLC value
NPLC value: 10.000
Digital filter count: 2
SAMPLE BIAS (V): -30.000
Vsource: ON
Output Voltage value: 30.000
Vsource range: 1000 V

Range Keithley B changed to 20 nA

Range Keithley B changed to 200 pA

Range Keithley B changed to 20 nA

Range Keithley B changed to 200 pA

Keithley B Bias (V) changed to: 0.000000

Range Keithley B changed to 20 nA

Keithley B Bias (V) changed to: -30.000000

Range Keithley B changed to 200 pA

Range Keithley B changed to 20 nA

Range Keithley B changed to 200 pA

Range Keithley B changed to 20 nA

Range Keithley B changed to 200 pA

Range Keithley B changed to 20 nA

Range Keithley B changed to 200 pA

Keithley B Bias (V) changed to: 0.000000

Keithley B Bias (V) changed to: -30.000000

Range Keithley B changed to 20 nA

Range Keithley B changed to 200 pA

Instrument 2: AMMETER KEITHLEY 6517A A
Measure type: Current
range type: set range value
range value (ampere):  200 pA
Integration time:  set NPLC value
NPLC value: 10.000
Digital filter count: 2
Vsource: OFF
Output Voltage value: -0.000
Vsource range: 100 V
Trigger source: bus

Range Keithley A changed to 20 nA

Range Keithley A changed to 200 nA

Range Keithley A changed to 200 pA

Range Keithley A changed to 20 nA

Range Keithley A changed to 200 pA

Range Keithley A changed to 20 nA

Range Keithley A changed to 200 nA

Range Keithley A changed to 200 pA

Range Keithley A changed to 20 nA

Range Keithley A changed to 200 pA

Range Keithley A changed to 20 nA

Range Keithley A changed to 200 nA

Range Keithley A changed to 200 pA

Range Keithley A changed to 20 nA

Range Keithley A changed to 200 pA

Range Keithley A changed to 20 nA

Range Keithley A changed to 200 pA

Range Keithley A changed to 20 nA

Range Keithley A changed to 200 pA

Instrument 3: COUNTER ORTEC 996Integration time (sec): 1.000


Range Keithley C changed to 200 nA


Range Keithley C changed to 2 uA


Range Keithley C changed to 200 nA


Range Keithley C changed to 2 uA


Range Keithley C changed to 200 pA


________________________________________________________________________________

RelativeTime (msec)	Photon Energy	Var_1	Var_2	INSTR_1_Sample with Bias _(ampere ) 	INSTR_2_Monitor IM_(ampere)  	INSTR_3_Ortec 996 counts_(counts)	I_BPM_sum (Amps)	
________________________________________________________________________________

2.10273000E+5	4.00000691E+0	0.00000000E+0	0.00000000E+0	2.77600000E-13	5.84000000E-14	0.00000000E+0	8.94118475E-5
2.22142000E+5	4.09999685E+0	0.00000000E+0	0.00000000E+0	2.90500000E-13	6.45000000E-14	0.00000000E+0	9.02311343E-5
2.32914000E+5	4.19999076E+0	0.00000000E+0	0.00000000E+0	2.69400000E-13	5.65000000E-14	0.00000000E+0	9.03504777E-5
2.43470000E+5	4.29999699E+0	0.00000000E+0	0.00000000E+0	2.61800000E-13	5.04000000E-14	0.00000000E+0	8.97788781E-5
2.53614000E+5	4.40000251E+0	0.00000000E+0	0.00000000E+0	2.91900000E-13	6.82000000E-14	0.00000000E+0	8.99687636E-5
2.63680000E+5	4.49999667E+0	0.00000000E+0	0.00000000E+0	2.76300000E-13	5.08000000E-14	0.00000000E+0	8.97884983E-5
2.73610000E+5	4.60000470E+0	0.00000000E+0	0.00000000E+0	2.81300000E-13	6.32000000E-14	0.00000000E+0	8.99252701E-5
2.83679000E+5	4.69999503E+0	0.00000000E+0	0.00000000E+0	2.80200000E-13	6.23000000E-14	0.00000000E+0	9.00268573E-5
2.93561000E+5	4.80000252E+0	0.00000000E+0	0.00000000E+0	2.79900000E-13	6.55000000E-14	0.00000000E+0	8.99158823E-5
3.03458000E+5	4.90000116E+0	0.00000000E+0	0.00000000E+0	2.65900000E-13	5.32000000E-14	0.00000000E+0	8.95432758E-5
3.13061000E+5	5.00000031E+0	0.00000000E+0	0.00000000E+0	2.62000000E-13	5.77000000E-14	0.00000000E+0	8.99853575E-5
3.22541000E+5	5.10000126E+0	0.00000000E+0	0.00000000E+0	2.85800000E-13	6.62000000E-14	0.00000000E+0	8.98680854E-5
3.31757000E+5	5.19999536E+0	0.00000000E+0	0.00000000E+0	2.82000000E-13	6.06000000E-14	0.00000000E+0	8.99613577E-5
3.41056000E+5	5.30000136E+0	0.00000000E+0	0.00000000E+0	2.73100000E-13	5.97000000E-14	0.00000000E+0	8.98856062E-5
3.50239000E+5	5.39999744E+0	0.00000000E+0	0.00000000E+0	2.81700000E-13	6.67000000E-14	0.00000000E+0	8.97316533E-5
3.59493000E+5	5.50000295E+0	0.00000000E+0	0.00000000E+0	2.80900000E-13	6.24000000E-14	0.00000000E+0	8.95061480E-5
3.68684000E+5	5.60000024E+0	0.00000000E+0	0.00000000E+0	2.75900000E-13	6.44000000E-14	0.00000000E+0	8.99557698E-5
3.77646000E+5	5.70001107E+0	0.00000000E+0	0.00000000E+0	2.91000000E-13	6.82000000E-14	0.00000000E+0	8.97922235E-5
3.86703000E+5	5.79999812E+0	0.00000000E+0	0.00000000E+0	2.86900000E-13	7.25000000E-14	0.00000000E+0	8.99487662E-5
3.95567000E+5	5.89999518E+0	0.00000000E+0	0.00000000E+0	2.86900000E-13	7.95000000E-14	0.00000000E+0	8.96336871E-5
4.04443000E+5	6.00000410E+0	0.00000000E+0	0.00000000E+0	2.91900000E-13	8.16000000E-14	0.00000000E+0	8.97894013E-5
4.13032000E+5	6.10000594E+0	0.00000000E+0	0.00000000E+0	2.83400000E-13	7.43000000E-14	0.00000000E+0	8.97285002E-5
4.21325000E+5	6.20000987E+0	0.00000000E+0	0.00000000E+0	2.90400000E-13	8.51000000E-14	0.00000000E+0	8.95682084E-5
4.29847000E+5	6.29999220E+0	0.00000000E+0	0.00000000E+0	3.05800000E-13	9.30000000E-14	0.00000000E+0	8.97515374E-5
4.38109000E+5	6.39999383E+0	0.00000000E+0	0.00000000E+0	3.12500000E-13	1.05500000E-13	0.00000000E+0	8.95466345E-5
4.46484000E+5	6.49999876E+0	0.00000000E+0	0.00000000E+0	3.16100000E-13	1.06200000E-13	0.00000000E+0	8.97588271E-5
4.54663000E+5	6.60001635E+0	0.00000000E+0	0.00000000E+0	3.18000000E-13	1.15500000E-13	0.00000000E+0	9.00223452E-5
4.63064000E+5	6.69999304E+0	0.00000000E+0	0.00000000E+0	3.21200000E-13	1.27900000E-13	0.00000000E+0	8.98026216E-5
4.71255000E+5	6.80000225E+0	0.00000000E+0	0.00000000E+0	3.45200000E-13	1.38900000E-13	0.00000000E+0	8.98049342E-5
4.79694000E+5	6.90000654E+0	0.00000000E+0	0.00000000E+0	3.35100000E-13	1.48200000E-13	0.00000000E+0	8.98512947E-5
4.87720000E+5	6.99999998E+0	0.00000000E+0	0.00000000E+0	3.60100000E-13	1.70700000E-13	0.00000000E+0	8.98159373E-5
4.95569000E+5	7.09999607E+0	0.00000000E+0	0.00000000E+0	3.92100000E-13	2.01200000E-13	0.00000000E+0	8.98556429E-5
5.03271000E+5	7.20000464E+0	0.00000000E+0	0.00000000E+0	4.11600000E-13	2.23800000E-13	0.00000000E+0	8.98578632E-5
5.11134000E+5	7.30000015E+0	0.00000000E+0	0.00000000E+0	4.51000000E-13	2.53000000E-13	0.00000000E+0	9.01388931E-5
5.19039000E+5	7.39999674E+0	0.00000000E+0	0.00000000E+0	4.62200000E-13	2.60400000E-13	0.00000000E+0	8.98899007E-5
5.27433000E+5	7.50000752E+0	0.00000000E+0	0.00000000E+0	4.72100000E-13	2.66200000E-13	0.00000000E+0	9.00520283E-5
5.35190000E+5	7.59997301E+0	0.00000000E+0	0.00000000E+0	4.30600000E-13	2.20800000E-13	0.00000000E+0	9.01223171E-5
5.42903000E+5	7.69999804E+0	0.00000000E+0	0.00000000E+0	3.69700000E-13	1.51600000E-13	0.00000000E+0	8.99872112E-5
5.50699000E+5	7.80003050E+0	0.00000000E+0	0.00000000E+0	3.04000000E-13	9.44000000E-14	0.00000000E+0	8.97253024E-5
5.58494000E+5	7.90000272E+0	0.00000000E+0	0.00000000E+0	2.78900000E-13	6.40000000E-14	0.00000000E+0	8.99898249E-5
5.66270000E+5	7.99998665E+0	0.00000000E+0	0.00000000E+0	2.72700000E-13	6.07000000E-14	0.00000000E+0	8.95009624E-5
