G:\BEAR_storage\User_Experiments\20220317_arneodo\file(1)_Region 3__0072.txt
Ring Energy (GeV): 2
Lifetime (hours): 15.2761
Scan beginning: 3/21/2022	12:11:15 PM
Ring current (mA): 308.56
Source position: x (mm): 0.007 x' (mrad): -0 y (mm): -0 y' (mrad): 0.001
Scan end: 3/21/2022	12:28:10 PM
Ring current (mA): 309.26
Source position: x (mm): 0.007 x' (mrad): -0.001 y (mm): -0.001 y' (mrad): 0.002

SCAN TYPE: PHOTON ENERGY VS VAR_1 VS VAR_2

FILE INFO: FILE INFO:

SCAN PARAMETERS
waiting time (ms): 0
Number of scans: 1
Current scan number: 1
DARK OFF 
PREDARK OFF 

SCAN PARAMETERS
Regions configuration: 
number of regions: 6
Mirror grating scan: on
Timed acquisition: off
Region 1:
Initial energy (eV): 40.000000
Final energy (eV): 72.000000
Delta energy (eV): 1.000000
Deviation angle choice: Higher order rejection
Deviation angle (°): NaN
Al filter
G1200 channel
range keithley B 20 nA
range keithley C 200 nA
range keithley A 20 nA
Var_1: PsiC 0.000000
Var_2: PhiM0.000000
Bias CEM (V): 0.000000
Bias Keithley B (V): -30.000000
Name region: 
Region 2:
Initial energy (eV): 70.000000
Final energy (eV): 102.000000
Delta energy (eV): 1.000000
Deviation angle choice: Higher order rejection
Deviation angle (°): NaN
Si filter
G1200 channel
range keithley B 20 nA
range keithley C 200 nA
range keithley A 20 nA
Var_1: PsiC 0.000000
Var_2: PhiM0.000000
Bias CEM (V): 0.000000
Bias Keithley B (V): -30.000000
Name region: 
Region 3:
Initial energy (eV): 98.000000
Final energy (eV): 260.000000
Delta energy (eV): 1.000000
Deviation angle choice: Higher order rejection
Deviation angle (°): NaN
Full Beam
G1200 channel
range keithley B 200 nA
range keithley C 200 nA
range keithley A 200 nA
Var_1: PsiC 0.000000
Var_2: PhiM0.000000
Bias CEM (V): 0.000000
Bias Keithley B (V): -30.000000
Name region: 
Region 4:
Initial energy (eV): 255.000000
Final energy (eV): 320.000000
Delta energy (eV): 1.000000
Deviation angle choice: Higher order rejection
Deviation angle (°): NaN
filter Ag 0.6 um
G1200 channel
range keithley B 200 pA
range keithley C 200 nA
range keithley A 200 pA
Var_1: PsiC 0.000000
Var_2: PhiM0.000000
Bias CEM (V): 0.000000
Bias Keithley B (V): -30.000000
Name region: 
Region 5:
Initial energy (eV): 315.000000
Final energy (eV): 1200.000000
Delta energy (eV): 5.000000
Deviation angle choice: Higher order rejection
Deviation angle (°): NaN
Full Beam
G1200 channel
range keithley B 20 nA
range keithley C 200 nA
range keithley A 20 nA
Var_1: PsiC 0.000000
Var_2: PhiM0.000000
Bias CEM (V): 0.000000
Bias Keithley B (V): -30.000000
Name region: 
Region 6:
Initial energy (eV): 1190.000000
Final energy (eV): 1500.000000
Delta energy (eV): 5.000000
Deviation angle choice: Higher order rejection
Deviation angle (°): NaN
filter Ag 0.6 um
G1200 channel
range keithley B 200 pA
range keithley C 200 nA
range keithley A 200 pA
Var_1: PsiC 0.000000
Var_2: PhiM0.000000
Bias CEM (V): 0.000000
Bias Keithley B (V): -30.000000
Name region: 

BEAR MONOCHROMATOR CONFIGURATION: 
Current Grating Position:     -146245.10
Current Mirror Position: 2556.9
Current Grating: G1200
P2 phiz position:  0.0000
Mono axis position: 25.0000
Current Photon Energy (eV): 136.999
Current Deviation Angle: 155.000
Vertical Exit Slits (um): 100.000
Exit slit y axis position: 1.3625
Horizontal Exit Slits (um):  889.156
Exit slit z axis position: 1.9229
Mitutoyo position (mm): 

Dose on sample (mJ/cm^2): NaN

ENERGY CALIBRATION:
offset grating G1200: yes
Delta 0 order G1200:  -1100.0
offset grating G1800: not
Delta 0 order G1800:  0.0
offset grating GNIM: not
Delta 0 order GNIM:  0.0
ZERO ORDER POSITIONS:
Grating G1200: Mirror position:  4938.0
Grating position: -105355.0
Grating G1800: 
Mirror position:  4938.0
Grating position: -106345.0
Grating GNIM: 
Mirror position:  10000.0
Grating position: 227300.0

Initial filter: Full Beam

EXPERIMENTAL CHAMBER CONFIGURATION: 
PsiC (deg):   -0.000186
Phi Analyzer (degrees): 89.992308
Theta Manipulator (degrees): -44.000040
Theta Analyzer (degrees): -135.001468
PhiM (degrees): -0.003077
XM (mm): -4.499188
YM (mm): 22.974263
ZM (mm): (Warning: for kinetic energy scans, 
this parameter is given in the scan settings) 
-14.001425
TiltM (°): 0.000138

ELECTRON ANALYZER CONFIGURATION: 
Current Kinetik energy (eV): 35.0
Mode: DE = COST
Pass Energy (eV):  100.000
CEM: ON
Bias Front-Back CEM (V): 3499.561
Bias Back-Collector CEM (V): 100.874
Bias Retard-Front CEM: 100.087COIL VALUES
Ix (amps):2.820
Iy (amps): 6.789
Iz (amps): 37.337

POLARIZATION SELECTOR CONFIGURATION:
Psi1 (rad): -0.001665535
Psi2 (rad): 0.001417093
Z min position (mm): 46.599650
DZ position (mm): 18.599100
Zmin 0 (mm): 66.500000
DZ0 (mm): 53.000000

BEAM SELECTOR CONFIGURATION:
Zmin position (mm): NaN
DZ position (mm): NaN
Y+ position (mm): NaN
Y- position (mm): NaN

CHANNEL ELECTRON MULTIPLIER CONFIGURATION:
CEM configured: OFF
Bias CEM: 0.000000

FLUORESCENCE DETECTOR CONFIGURATION:
Not configured

LUMINESCENCE MONOCHROMATOR CONFIGURATION:
Optical fiber position (mm): 0.000000
Optical fiber Switch inside: OFF
Optical fiber Switch outside: ON
Monochromator wavelength (A): 0.000000
Limit Switches: ON

I0 MONITOR PARAMETERS:
I0 detector position(mm): -1.924999E+2
Lower switch: OFF
Upper switch: OFF
Valve status:open

PRESSURE PARAMETERS:
Monitor chamber pressure (mbar): 9.313e-10
Experimental chamber pressure -ION GAUGE-(mbar): 0.000000E+0

XMCD PARAMETERS:
Xmcd OFF
Xmcd Direction -
Xmcd current (A): 0.000000

Gated scan off

Instrument 1: AMMETER KEITHLEY 6517A B
Measure type: Current
range type: set range value
range value (ampere):  20 nA
Integration time:  set NPLC value
NPLC value: 10.000
Digital filter count: 2
SAMPLE BIAS (V): -30.000
Vsource: ON
Output Voltage value: 30.000
Vsource range: 1000 V

Range Keithley B changed to 200 nA

Range Keithley B changed to 200 pA

Instrument 2: AMMETER KEITHLEY 6517A A
Measure type: Current
range type: set range value
range value (ampere):  200 nA
Integration time:  set NPLC value
NPLC value: 10.000
Digital filter count: 2
Vsource: OFF
Output Voltage value: -0.000
Vsource range: 100 V
Trigger source: bus

Range Keithley A changed to 20 nA

Range Keithley A changed to 200 nA

Range Keithley A changed to 200 pA

Range Keithley A changed to 20 nA

Range Keithley A changed to 200 pA

Range Keithley A changed to 20 nA

Range Keithley A changed to 200 nA

Range Keithley A changed to 200 pA

Range Keithley A changed to 20 nA

Range Keithley A changed to 200 pA

Range Keithley A changed to 20 nA

Range Keithley A changed to 200 nA

Range Keithley A changed to 200 pA

Range Keithley A changed to 20 nA

Range Keithley A changed to 200 pA

Range Keithley A changed to 20 nA

Range Keithley A changed to 200 pA

Range Keithley A changed to 20 nA

Range Keithley A changed to 200 pA

Range Keithley A changed to 20 nA

Range Keithley A changed to 200 pA

Range Keithley A changed to 20 nA

Range Keithley A changed to 200 nA

Range Keithley A changed to 200 pA

Range Keithley A changed to 20 nA

Range Keithley A changed to 200 pA

Range Keithley A changed to 20 nA

Range Keithley A changed to 200 nA

Range Keithley A changed to 200 pA

Range Keithley A changed to 20 nA

Range Keithley A changed to 200 nA

Range Keithley A changed to 200 pA

Range Keithley A changed to 20 nA

Range Keithley A changed to 200 pA

Range Keithley A changed to 20 nA

Range Keithley A changed to 200 pA

Range Keithley A changed to 20 nA

Range Keithley A changed to 200 nA

Range Keithley A changed to 200 pA

Range Keithley A changed to 20 nA

Range Keithley A changed to 200 pA

Range Keithley A changed to 20 nA

Range Keithley A changed to 200 nA

Range Keithley A changed to 20 nA

Range Keithley A changed to 200 nA

Range Keithley A changed to 200 pA

Range Keithley A changed to 20 nA

Range Keithley A changed to 200 nA

Range Keithley A changed to 2 uA

Range Keithley A changed to 20 nA

Range Keithley A changed to 200 nA

Range Keithley A changed to 2 uA

Range Keithley A changed to 20 nA

Range Keithley A changed to 200 nA

Range Keithley A changed to 200 pA

Range Keithley A changed to 2 uA

Range Keithley A changed to 20 nA

Range Keithley A changed to 200 nA

Range Keithley A changed to 200 pA

Range Keithley A changed to 20 nA

Range Keithley A changed to 2 uA

Range Keithley A changed to 20 nA

Range Keithley A changed to 200 nA

Range Keithley A changed to 20 nA

Range Keithley A changed to 200 nA

Range Keithley A changed to 200 pA

Range Keithley A changed to 2 uA

Range Keithley A changed to 20 nA

Range Keithley A changed to 200 nA

Range Keithley A changed to 20 nA

Range Keithley A changed to 200 nA

Range Keithley A changed to 200 pA

Range Keithley A changed to 20 nA

Range Keithley A changed to 200 nA

Range Keithley A changed to 20 nA

Range Keithley A changed to 200 nA

Range Keithley A changed to 200 pA

Range Keithley A changed to 20 nA

Range Keithley A changed to 200 nA

Range Keithley A changed to 200 pA

Range Keithley A changed to 20 nA

Range Keithley A changed to 200 pA

Range Keithley A changed to 20 nA

Range Keithley A changed to 200 pA

Range Keithley A changed to 20 nA

Range Keithley A changed to 200 pA

Range Keithley A changed to 20 nA

Range Keithley A changed to 200 pA

Range Keithley A changed to 20 nA

Range Keithley A changed to 200 nA

Range Keithley A changed to 2 uA

Range Keithley A changed to 20 uA

Range Keithley A changed to 200 uA

Range Keithley A changed to 20 nA

Range Keithley A changed to 200 nA

Range Keithley A changed to 200 pA

Range Keithley A changed to 20 nA

Range Keithley A changed to 200 pA

Range Keithley A changed to 20 nA

Range Keithley A changed to 200 nA

Range Keithley A changed to 20 nA

Range Keithley A changed to 200 nA

Range Keithley A changed to 200 pA

Instrument 3: COUNTER ORTEC 996Integration time (sec): 1.000


Range Keithley C changed to 200 nA


________________________________________________________________________________

RelativeTime (msec)	Photon Energy	Var_1	Var_2	INSTR_1_Sample with Bias _(ampere ) 	INSTR_2_Monitor IM_(ampere)  	INSTR_3_Ortec 996 counts_(counts)	I_BPM_sum (Amps)	
________________________________________________________________________________

3.17024000E+5	9.80008599E+1	0.00000000E+0	0.00000000E+0	1.21675000E-8	4.50140000E-9	2.81860000E+4	8.93591958E-5
3.21902000E+5	9.89988265E+1	0.00000000E+0	0.00000000E+0	1.25983000E-8	4.67740000E-9	2.91940000E+4	8.92333435E-5
3.25900000E+5	9.99997864E+1	0.00000000E+0	0.00000000E+0	1.29647000E-8	4.83530000E-9	2.99530000E+4	8.92385053E-5
3.29930000E+5	1.01000485E+2	0.00000000E+0	0.00000000E+0	1.32846000E-8	4.97960000E-9	3.05420000E+4	8.91684966E-5
3.33955000E+5	1.01999883E+2	0.00000000E+0	0.00000000E+0	1.36561000E-8	5.14670000E-9	3.10620000E+4	8.92824130E-5
3.38030000E+5	1.03000648E+2	0.00000000E+0	0.00000000E+0	1.41201000E-8	5.35050000E-9	3.23870000E+4	8.91253607E-5
3.42048000E+5	1.03999714E+2	0.00000000E+0	0.00000000E+0	1.45913000E-8	5.56030000E-9	3.34910000E+4	8.90106248E-5
3.46049000E+5	1.05000533E+2	0.00000000E+0	0.00000000E+0	1.50820000E-8	5.77730000E-9	3.42850000E+4	8.93958198E-5
3.50071000E+5	1.05999984E+2	0.00000000E+0	0.00000000E+0	1.56751000E-8	6.01920000E-9	3.55610000E+4	8.90948074E-5
3.54058000E+5	1.07000368E+2	0.00000000E+0	0.00000000E+0	1.63799000E-8	6.29720000E-9	3.67710000E+4	8.91131269E-5
3.58122000E+5	1.08000044E+2	0.00000000E+0	0.00000000E+0	1.70176000E-8	6.57620000E-9	3.74360000E+4	8.92173546E-5
3.62051000E+5	1.08999609E+2	0.00000000E+0	0.00000000E+0	1.75969000E-8	6.82100000E-9	3.84570000E+4	8.93311130E-5
3.66036000E+5	1.10000679E+2	0.00000000E+0	0.00000000E+0	1.80791000E-8	7.09090000E-9	3.92970000E+4	8.89430212E-5
3.69911000E+5	1.10999423E+2	0.00000000E+0	0.00000000E+0	1.85153000E-8	7.31260000E-9	3.97490000E+4	8.92634915E-5
3.73807000E+5	1.11998917E+2	0.00000000E+0	0.00000000E+0	1.89833000E-8	7.53020000E-9	4.08840000E+4	8.91540961E-5
3.77727000E+5	1.12999966E+2	0.00000000E+0	0.00000000E+0	1.94360000E-8	7.75290000E-9	4.18230000E+4	8.86331157E-5
3.81680000E+5	1.14001141E+2	0.00000000E+0	0.00000000E+0	1.98561000E-8	7.96420000E-9	4.31310000E+4	8.91592788E-5
3.85566000E+5	1.15000405E+2	0.00000000E+0	0.00000000E+0	2.02422000E-8	8.15940000E-9	4.32070000E+4	8.89868097E-5
3.89463000E+5	1.16000370E+2	0.00000000E+0	0.00000000E+0	2.05797000E-8	8.34570000E-9	4.36360000E+4	8.91606318E-5
3.93371000E+5	1.17000072E+2	0.00000000E+0	0.00000000E+0	2.08459000E-8	8.51470000E-9	4.37900000E+4	8.90738474E-5
3.97299000E+5	1.18000689E+2	0.00000000E+0	0.00000000E+0	2.10025000E-8	8.64410000E-9	4.36220000E+4	8.92306553E-5
4.01218000E+5	1.18999870E+2	0.00000000E+0	0.00000000E+0	2.10805000E-8	8.72770000E-9	4.40350000E+4	8.88646500E-5
4.05088000E+5	1.20000791E+2	0.00000000E+0	0.00000000E+0	2.10861000E-8	8.77480000E-9	4.37490000E+4	8.88243215E-5
4.08982000E+5	1.20999649E+2	0.00000000E+0	0.00000000E+0	2.10463000E-8	8.80100000E-9	4.37440000E+4	8.88592170E-5
4.12873000E+5	1.22000022E+2	0.00000000E+0	0.00000000E+0	2.09838000E-8	8.81340000E-9	4.38880000E+4	8.91640233E-5
4.16733000E+5	1.23000674E+2	0.00000000E+0	0.00000000E+0	2.08844000E-8	8.80800000E-9	4.33000000E+4	8.88056801E-5
4.20663000E+5	1.23999376E+2	0.00000000E+0	0.00000000E+0	2.07367000E-8	8.78230000E-9	4.30570000E+4	8.86876331E-5
4.24590000E+5	1.25000605E+2	0.00000000E+0	0.00000000E+0	2.05555000E-8	8.74080000E-9	4.23880000E+4	8.90318053E-5
4.28508000E+5	1.25999656E+2	0.00000000E+0	0.00000000E+0	2.03353000E-8	8.68310000E-9	4.22340000E+4	8.93136638E-5
4.32383000E+5	1.27000184E+2	0.00000000E+0	0.00000000E+0	2.00568000E-8	8.60480000E-9	4.12650000E+4	8.93898623E-5
4.36212000E+5	1.27998002E+2	0.00000000E+0	0.00000000E+0	1.97233000E-8	8.50410000E-9	4.09950000E+4	8.92364370E-5
4.39935000E+5	1.29001785E+2	0.00000000E+0	0.00000000E+0	1.93470000E-8	8.38390000E-9	3.98210000E+4	8.90892016E-5
4.43674000E+5	1.29999119E+2	0.00000000E+0	0.00000000E+0	1.89346000E-8	8.24740000E-9	3.89090000E+4	8.87430476E-5
4.47434000E+5	1.31001173E+2	0.00000000E+0	0.00000000E+0	1.84793000E-8	8.09100000E-9	3.79370000E+4	8.87222604E-5
4.51190000E+5	1.32000251E+2	0.00000000E+0	0.00000000E+0	1.79801000E-8	7.91400000E-9	3.67370000E+4	8.89919596E-5
4.55792000E+5	1.33000392E+2	0.00000000E+0	0.00000000E+0	1.74332000E-8	7.71460000E-9	3.59810000E+4	8.90855240E-5
4.59553000E+5	1.33997758E+2	0.00000000E+0	0.00000000E+0	1.68493000E-8	7.49530000E-9	3.46950000E+4	8.91201394E-5
4.63319000E+5	1.35001934E+2	0.00000000E+0	0.00000000E+0	1.62338000E-8	7.25910000E-9	3.36220000E+4	8.89215844E-5
4.67052000E+5	1.35999767E+2	0.00000000E+0	0.00000000E+0	1.56070000E-8	7.01360000E-9	3.23320000E+4	8.88381468E-5
4.70823000E+5	1.36999885E+2	0.00000000E+0	0.00000000E+0	1.49680000E-8	6.75920000E-9	3.06170000E+4	8.91769605E-5
4.74571000E+5	1.37999808E+2	0.00000000E+0	0.00000000E+0	1.43193000E-8	6.49810000E-9	2.96810000E+4	8.91038613E-5
4.78318000E+5	1.39001855E+2	0.00000000E+0	0.00000000E+0	1.36499000E-8	6.22510000E-9	2.85000000E+4	8.87488322E-5
4.82069000E+5	1.39999276E+2	0.00000000E+0	0.00000000E+0	1.29563000E-8	5.93790000E-9	2.66870000E+4	8.90842753E-5
4.85840000E+5	1.41000130E+2	0.00000000E+0	0.00000000E+0	1.22287000E-8	5.63110000E-9	2.55120000E+4	8.87872414E-5
4.89564000E+5	1.41999899E+2	0.00000000E+0	0.00000000E+0	1.14639000E-8	5.30360000E-9	2.38790000E+4	8.92319428E-5
4.93300000E+5	1.42999843E+2	0.00000000E+0	0.00000000E+0	1.06752000E-8	4.96310000E-9	2.24060000E+4	8.86490928E-5
4.97047000E+5	1.43999666E+2	0.00000000E+0	0.00000000E+0	9.86920000E-9	4.61220000E-9	2.08050000E+4	8.86664288E-5
5.00813000E+5	1.45000310E+2	0.00000000E+0	0.00000000E+0	9.06640000E-9	4.25930000E-9	1.92700000E+4	8.87211607E-5
5.04608000E+5	1.46001515E+2	0.00000000E+0	0.00000000E+0	8.27070000E-9	3.90760000E-9	1.75390000E+4	8.88007985E-5
5.08403000E+5	1.46999182E+2	0.00000000E+0	0.00000000E+0	7.51450000E-9	3.57030000E-9	1.59820000E+4	8.89077561E-5
5.12133000E+5	1.47999355E+2	0.00000000E+0	0.00000000E+0	6.82330000E-9	3.26010000E-9	1.48300000E+4	8.88463931E-5
5.15866000E+5	1.49001418E+2	0.00000000E+0	0.00000000E+0	6.18030000E-9	2.96820000E-9	1.33030000E+4	8.92889368E-5
5.19616000E+5	1.49998963E+2	0.00000000E+0	0.00000000E+0	5.58590000E-9	2.69590000E-9	1.20630000E+4	8.91098397E-5
5.24048000E+5	1.50971663E+2	0.00000000E+0	0.00000000E+0	4.96820000E-9	2.41310000E-9	1.08360000E+4	8.92033832E-5
5.28509000E+5	1.52023665E+2	0.00000000E+0	0.00000000E+0	4.60130000E-9	2.24610000E-9	1.01840000E+4	8.94766586E-5
5.33003000E+5	1.53004758E+2	0.00000000E+0	0.00000000E+0	4.23440000E-9	2.07850000E-9	9.45600000E+3	8.92068790E-5
5.37416000E+5	1.54001796E+2	0.00000000E+0	0.00000000E+0	3.88830000E-9	1.91930000E-9	8.56500000E+3	8.93948453E-5
5.41867000E+5	1.54998656E+2	0.00000000E+0	0.00000000E+0	3.56820000E-9	1.77140000E-9	7.88700000E+3	8.94102203E-5
5.46287000E+5	1.55999269E+2	0.00000000E+0	0.00000000E+0	3.29040000E-9	1.64260000E-9	7.27900000E+3	8.92122256E-5
5.50704000E+5	1.56999341E+2	0.00000000E+0	0.00000000E+0	3.04940000E-9	1.53070000E-9	6.75700000E+3	8.90444653E-5
5.55156000E+5	1.57997585E+2	0.00000000E+0	0.00000000E+0	2.83680000E-9	1.43100000E-9	6.16100000E+3	8.91056733E-5
5.59587000E+5	1.58999947E+2	0.00000000E+0	0.00000000E+0	2.64190000E-9	1.33850000E-9	5.90700000E+3	8.93299299E-5
5.64020000E+5	1.59995017E+2	0.00000000E+0	0.00000000E+0	2.46700000E-9	1.25580000E-9	5.60600000E+3	8.95095336E-5
5.68431000E+5	1.60993602E+2	0.00000000E+0	0.00000000E+0	2.33260000E-9	1.19360000E-9	5.16900000E+3	8.90739040E-5
5.72847000E+5	1.62002289E+2	0.00000000E+0	0.00000000E+0	2.19950000E-9	1.13170000E-9	4.97700000E+3	8.91204970E-5
5.77320000E+5	1.63007379E+2	0.00000000E+0	0.00000000E+0	2.04920000E-9	1.06100000E-9	4.69900000E+3	8.91593682E-5
5.81743000E+5	1.64003400E+2	0.00000000E+0	0.00000000E+0	1.88090000E-9	9.79900000E-10	4.28200000E+3	8.93962400E-5
5.86162000E+5	1.65003428E+2	0.00000000E+0	0.00000000E+0	1.71370000E-9	8.98300000E-10	3.99800000E+3	8.90248166E-5
5.90587000E+5	1.66000219E+2	0.00000000E+0	0.00000000E+0	1.55160000E-9	8.19100000E-10	3.46500000E+3	8.91980933E-5
5.95040000E+5	1.66999181E+2	0.00000000E+0	0.00000000E+0	1.41210000E-9	7.50400000E-10	3.27100000E+3	8.88239311E-5
5.99480000E+5	1.67998457E+2	0.00000000E+0	0.00000000E+0	1.29550000E-9	6.92800000E-10	2.98100000E+3	8.88858663E-5
6.03914000E+5	1.68998481E+2	0.00000000E+0	0.00000000E+0	1.19720000E-9	6.44400000E-10	2.82200000E+3	8.92122405E-5
6.08388000E+5	1.69996078E+2	0.00000000E+0	0.00000000E+0	1.11370000E-9	6.03400000E-10	2.73000000E+3	8.92106520E-5
6.12800000E+5	1.70993496E+2	0.00000000E+0	0.00000000E+0	1.05050000E-9	5.72400000E-10	2.43300000E+3	8.92578023E-5
6.17213000E+5	1.71996262E+2	0.00000000E+0	0.00000000E+0	1.00350000E-9	5.49100000E-10	2.35500000E+3	8.89405386E-5
6.21685000E+5	1.73006807E+2	0.00000000E+0	0.00000000E+0	9.55000000E-10	5.23800000E-10	2.27300000E+3	8.90101956E-5
6.26141000E+5	1.74006113E+2	0.00000000E+0	0.00000000E+0	8.99700000E-10	4.95800000E-10	2.17000000E+3	8.88757365E-5
6.30591000E+5	1.75002211E+2	0.00000000E+0	0.00000000E+0	8.43300000E-10	4.66300000E-10	2.08000000E+3	8.87892948E-5
6.35004000E+5	1.76001232E+2	0.00000000E+0	0.00000000E+0	7.94100000E-10	4.37800000E-10	1.94000000E+3	8.88703303E-5
6.39443000E+5	1.77002271E+2	0.00000000E+0	0.00000000E+0	7.49000000E-10	4.11800000E-10	1.76600000E+3	8.90360551E-5
6.43859000E+5	1.77994469E+2	0.00000000E+0	0.00000000E+0	7.05100000E-10	3.91700000E-10	1.76900000E+3	8.87863444E-5
6.48279000E+5	1.78998580E+2	0.00000000E+0	0.00000000E+0	6.66200000E-10	3.76200000E-10	1.68100000E+3	8.89487402E-5
6.52764000E+5	1.79998701E+2	0.00000000E+0	0.00000000E+0	6.36000000E-10	3.63600000E-10	1.61400000E+3	8.89148788E-5
6.57220000E+5	1.80995114E+2	0.00000000E+0	0.00000000E+0	6.15300000E-10	3.54300000E-10	1.47700000E+3	8.90536593E-5
6.61705000E+5	1.81993124E+2	0.00000000E+0	0.00000000E+0	6.04400000E-10	3.49000000E-10	1.54000000E+3	8.90931057E-5
6.66886000E+5	1.83003277E+2	0.00000000E+0	0.00000000E+0	5.94000000E-10	3.43900000E-10	1.52700000E+3	8.90171455E-5
6.71343000E+5	1.84006518E+2	0.00000000E+0	0.00000000E+0	5.82400000E-10	3.37400000E-10	1.41400000E+3	8.90001373E-5
6.75810000E+5	1.85002468E+2	0.00000000E+0	0.00000000E+0	5.69400000E-10	3.30000000E-10	1.41000000E+3	8.88669805E-5
6.80261000E+5	1.86005338E+2	0.00000000E+0	0.00000000E+0	5.58900000E-10	3.22400000E-10	1.38500000E+3	8.91188936E-5
6.84698000E+5	1.87000755E+2	0.00000000E+0	0.00000000E+0	5.44700000E-10	3.16200000E-10	1.40000000E+3	8.89426308E-5
6.89202000E+5	1.87999623E+2	0.00000000E+0	0.00000000E+0	5.26200000E-10	3.11100000E-10	1.39200000E+3	8.87354867E-5
6.93671000E+5	1.88996194E+2	0.00000000E+0	0.00000000E+0	5.14400000E-10	3.07800000E-10	1.27100000E+3	8.86091219E-5
6.98086000E+5	1.89998471E+2	0.00000000E+0	0.00000000E+0	5.07800000E-10	3.05700000E-10	1.37500000E+3	8.90386539E-5
7.02515000E+5	1.90998239E+2	0.00000000E+0	0.00000000E+0	5.03800000E-10	3.04700000E-10	1.30700000E+3	8.88106243E-5
7.06922000E+5	1.91993630E+2	0.00000000E+0	0.00000000E+0	5.03600000E-10	3.04900000E-10	1.34400000E+3	8.94494044E-5
7.11358000E+5	1.92996892E+2	0.00000000E+0	0.00000000E+0	5.05300000E-10	3.06600000E-10	1.25800000E+3	8.87473182E-5
7.15764000E+5	1.94006931E+2	0.00000000E+0	0.00000000E+0	5.05900000E-10	3.07200000E-10	1.31700000E+3	8.86207031E-5
7.20233000E+5	1.95001858E+2	0.00000000E+0	0.00000000E+0	5.03700000E-10	3.06600000E-10	1.24200000E+3	8.87416588E-5
7.24669000E+5	1.96004130E+2	0.00000000E+0	0.00000000E+0	5.00400000E-10	3.05100000E-10	1.30700000E+3	8.89571177E-5
7.29098000E+5	1.97005227E+2	0.00000000E+0	0.00000000E+0	4.96000000E-10	3.02800000E-10	1.24100000E+3	8.90497999E-5
7.33518000E+5	1.97999164E+2	0.00000000E+0	0.00000000E+0	4.89700000E-10	3.00800000E-10	1.29700000E+3	8.83555339E-5
7.37971000E+5	1.98995952E+2	0.00000000E+0	0.00000000E+0	4.86200000E-10	2.99500000E-10	1.24900000E+3	8.86676179E-5
7.42391000E+5	1.99998423E+2	0.00000000E+0	0.00000000E+0	4.81800000E-10	2.98400000E-10	1.23800000E+3	8.86982308E-5
7.46817000E+5	2.00996696E+2	0.00000000E+0	0.00000000E+0	4.78900000E-10	2.98000000E-10	1.21600000E+3	8.88255553E-5
7.51234000E+5	2.01996294E+2	0.00000000E+0	0.00000000E+0	4.77700000E-10	2.98800000E-10	1.16500000E+3	8.91865807E-5
7.55707000E+5	2.02994676E+2	0.00000000E+0	0.00000000E+0	4.80300000E-10	3.01200000E-10	1.20400000E+3	8.89066445E-5
7.60112000E+5	2.04004260E+2	0.00000000E+0	0.00000000E+0	4.82600000E-10	3.03700000E-10	1.22000000E+3	8.91715484E-5
7.64584000E+5	2.05004410E+2	0.00000000E+0	0.00000000E+0	4.84000000E-10	3.06300000E-10	1.21700000E+3	8.89987605E-5
7.69069000E+5	2.06009388E+2	0.00000000E+0	0.00000000E+0	4.82500000E-10	3.07600000E-10	1.24000000E+3	8.91006904E-5
7.73526000E+5	2.07001005E+2	0.00000000E+0	0.00000000E+0	4.80600000E-10	3.08300000E-10	1.19400000E+3	8.92743545E-5
7.77954000E+5	2.08003617E+2	0.00000000E+0	0.00000000E+0	4.78900000E-10	3.09200000E-10	1.18300000E+3	8.88885306E-5
7.82396000E+5	2.08992883E+2	0.00000000E+0	0.00000000E+0	4.78000000E-10	3.10300000E-10	1.26700000E+3	8.94342171E-5
7.86832000E+5	2.10000034E+2	0.00000000E+0	0.00000000E+0	4.77200000E-10	3.11800000E-10	1.24000000E+3	8.93717127E-5
7.91287000E+5	2.10995055E+2	0.00000000E+0	0.00000000E+0	4.76300000E-10	3.13200000E-10	1.22400000E+3	8.89264541E-5
7.95715000E+5	2.11999269E+2	0.00000000E+0	0.00000000E+0	4.76000000E-10	3.14700000E-10	1.22500000E+3	8.90658157E-5
8.00155000E+5	2.12994962E+2	0.00000000E+0	0.00000000E+0	4.76900000E-10	3.16600000E-10	1.21800000E+3	8.93364476E-5
8.04590000E+5	2.13996404E+2	0.00000000E+0	0.00000000E+0	4.78600000E-10	3.19100000E-10	1.20800000E+3	8.91665386E-5
8.08990000E+5	2.15009032E+2	0.00000000E+0	0.00000000E+0	4.78400000E-10	3.20200000E-10	1.25200000E+3	8.91914146E-5
8.13406000E+5	2.16006359E+2	0.00000000E+0	0.00000000E+0	4.74800000E-10	3.19500000E-10	1.17500000E+3	8.89573799E-5
8.17904000E+5	2.17001554E+2	0.00000000E+0	0.00000000E+0	4.68200000E-10	3.17200000E-10	1.19100000E+3	8.90717970E-5
8.22354000E+5	2.17999841E+2	0.00000000E+0	0.00000000E+0	4.59800000E-10	3.13700000E-10	1.15500000E+3	8.93003868E-5
8.26816000E+5	2.19002099E+2	0.00000000E+0	0.00000000E+0	4.51700000E-10	3.10200000E-10	1.10700000E+3	8.91650694E-5
8.31286000E+5	2.19994690E+2	0.00000000E+0	0.00000000E+0	4.45600000E-10	3.07600000E-10	1.16400000E+3	8.88859587E-5
8.35733000E+5	2.20999389E+2	0.00000000E+0	0.00000000E+0	4.39500000E-10	3.05300000E-10	1.09800000E+3	8.91790168E-5
8.40217000E+5	2.21996264E+2	0.00000000E+0	0.00000000E+0	4.35200000E-10	3.03900000E-10	1.15000000E+3	8.87810306E-5
8.44737000E+5	2.22997040E+2	0.00000000E+0	0.00000000E+0	4.32900000E-10	3.03700000E-10	1.12600000E+3	8.92452317E-5
8.49205000E+5	2.23989974E+2	0.00000000E+0	0.00000000E+0	4.33700000E-10	3.05400000E-10	1.14700000E+3	8.91375946E-5
8.53622000E+5	2.25009471E+2	0.00000000E+0	0.00000000E+0	4.33000000E-10	3.06500000E-10	1.09300000E+3	8.90546815E-5
8.58044000E+5	2.26004519E+2	0.00000000E+0	0.00000000E+0	4.31100000E-10	3.06800000E-10	1.01300000E+3	8.91901927E-5
8.62482000E+5	2.27007515E+2	0.00000000E+0	0.00000000E+0	4.26200000E-10	3.05600000E-10	1.09300000E+3	8.90421854E-5
8.66899000E+5	2.28006027E+2	0.00000000E+0	0.00000000E+0	4.23100000E-10	3.05000000E-10	1.09300000E+3	8.90660482E-5
8.71347000E+5	2.28995453E+2	0.00000000E+0	0.00000000E+0	4.19900000E-10	3.04900000E-10	1.14400000E+3	8.86801706E-5
8.75767000E+5	2.29996114E+2	0.00000000E+0	0.00000000E+0	4.17800000E-10	3.05400000E-10	1.02700000E+3	8.91440259E-5
8.80203000E+5	2.30996459E+2	0.00000000E+0	0.00000000E+0	4.17700000E-10	3.07100000E-10	1.02500000E+3	8.85541515E-5
8.84634000E+5	2.32000705E+2	0.00000000E+0	0.00000000E+0	4.19500000E-10	3.10000000E-10	1.04200000E+3	8.90629785E-5
8.89891000E+5	2.32992418E+2	0.00000000E+0	0.00000000E+0	4.22700000E-10	3.14400000E-10	1.08200000E+3	8.88932006E-5
8.94353000E+5	2.33994534E+2	0.00000000E+0	0.00000000E+0	4.28000000E-10	3.19600000E-10	1.08200000E+3	8.90519993E-5
8.98851000E+5	2.34999720E+2	0.00000000E+0	0.00000000E+0	4.34100000E-10	3.24900000E-10	1.13400000E+3	8.90021997E-5
9.03279000E+5	2.36008981E+2	0.00000000E+0	0.00000000E+0	4.37700000E-10	3.29300000E-10	1.13500000E+3	8.91730713E-5
9.07804000E+5	2.37006636E+2	0.00000000E+0	0.00000000E+0	4.41000000E-10	3.33500000E-10	1.06800000E+3	8.87976275E-5
9.12217000E+5	2.38006775E+2	0.00000000E+0	0.00000000E+0	4.45200000E-10	3.37600000E-10	1.11900000E+3	8.88692396E-5
9.16652000E+5	2.38998505E+2	0.00000000E+0	0.00000000E+0	4.55000000E-10	3.41800000E-10	1.14500000E+3	8.89031874E-5
9.21096000E+5	2.40000060E+2	0.00000000E+0	0.00000000E+0	4.53600000E-10	3.46700000E-10	1.19300000E+3	8.87357073E-5
9.25542000E+5	2.40999183E+2	0.00000000E+0	0.00000000E+0	4.58400000E-10	3.52000000E-10	1.14300000E+3	8.90273707E-5
9.29992000E+5	2.41991891E+2	0.00000000E+0	0.00000000E+0	4.67700000E-10	3.58000000E-10	1.15100000E+3	8.91445266E-5
9.34451000E+5	2.43000322E+2	0.00000000E+0	0.00000000E+0	4.66300000E-10	3.64400000E-10	1.26300000E+3	8.89549719E-5
9.38859000E+5	2.43992241E+2	0.00000000E+0	0.00000000E+0	4.70000000E-10	3.71600000E-10	1.24800000E+3	8.87811469E-5
9.43351000E+5	2.45002925E+2	0.00000000E+0	0.00000000E+0	4.76400000E-10	3.79200000E-10	1.16800000E+3	8.89303939E-5
9.47868000E+5	2.46003537E+2	0.00000000E+0	0.00000000E+0	4.81900000E-10	3.86300000E-10	1.22800000E+3	8.88712065E-5
9.52341000E+5	2.47007104E+2	0.00000000E+0	0.00000000E+0	4.86500000E-10	3.92700000E-10	1.24400000E+3	8.90087651E-5
9.56792000E+5	2.48001567E+2	0.00000000E+0	0.00000000E+0	4.90500000E-10	3.98600000E-10	1.27400000E+3	8.89250414E-5
9.61199000E+5	2.48998827E+2	0.00000000E+0	0.00000000E+0	4.93400000E-10	4.03800000E-10	1.25500000E+3	8.87517558E-5
9.65630000E+5	2.50000101E+2	0.00000000E+0	0.00000000E+0	4.96600000E-10	4.09000000E-10	1.28300000E+3	8.89443474E-5
9.69482000E+5	2.50996778E+2	0.00000000E+0	0.00000000E+0	4.92800000E-10	4.08000000E-10	1.26100000E+3	8.86369215E-5
9.73324000E+5	2.51995784E+2	0.00000000E+0	0.00000000E+0	4.88400000E-10	4.06700000E-10	1.20600000E+3	8.87037204E-5
9.77169000E+5	2.53006077E+2	0.00000000E+0	0.00000000E+0	4.83900000E-10	4.05400000E-10	1.22000000E+3	8.92691212E-5
9.81050000E+5	2.53997796E+2	0.00000000E+0	0.00000000E+0	4.79400000E-10	4.03800000E-10	1.21300000E+3	8.87170033E-5
9.84960000E+5	2.54998715E+2	0.00000000E+0	0.00000000E+0	4.74100000E-10	4.02200000E-10	1.23000000E+3	8.88684915E-5
9.88813000E+5	2.55997535E+2	0.00000000E+0	0.00000000E+0	4.69800000E-10	4.01200000E-10	1.16000000E+3	8.90330689E-5
9.92682000E+5	2.57002368E+2	0.00000000E+0	0.00000000E+0	4.65300000E-10	4.00300000E-10	1.22900000E+3	8.91685115E-5
9.96548000E+5	2.58001585E+2	0.00000000E+0	0.00000000E+0	4.60000000E-10	3.98600000E-10	1.17700000E+3	8.92252343E-5
1.00038800E+6	2.58997516E+2	0.00000000E+0	0.00000000E+0	4.55200000E-10	3.97000000E-10	1.17400000E+3	8.90687184E-5
1.00424100E+6	2.60002430E+2	0.00000000E+0	0.00000000E+0	4.50400000E-10	3.95500000E-10	1.15500000E+3	8.91700881E-5
