G:\BEAR_storage\User_Experiments\20220317_arneodo\file(1)_Region 6__0079.txt
Ring Energy (GeV): 2
Lifetime (hours): 15.3642
Scan beginning: 3/21/2022	4:03:41 PM
Ring current (mA): 308.61
Source position: x (mm): 0.005 x' (mrad): 0.001 y (mm): 0 y' (mrad): 0.002
Scan end: 3/21/2022	4:44:26 PM
Ring current (mA): 308.98
Source position: x (mm): 0.004 x' (mrad): 0.001 y (mm): 0.002 y' (mrad): 0.001

SCAN TYPE: PHOTON ENERGY VS VAR_1 VS VAR_2

FILE INFO: FILE INFO:

SCAN PARAMETERS
waiting time (ms): 1000
Number of scans: 1
Current scan number: 1
DARK OFF 
PREDARK OFF 

SCAN PARAMETERS
Regions configuration: 
number of regions: 6
Mirror grating scan: on
Timed acquisition: off
Region 1:
Initial energy (eV): 40.000000
Final energy (eV): 72.000000
Delta energy (eV): 1.000000
Deviation angle choice: Higher order rejection
Deviation angle (°): NaN
Al filter
G1200 channel
range keithley B 20 nA
range keithley C 200 nA
range keithley A 20 nA
Var_1: PsiC 0.000000
Var_2: PhiM0.000000
Bias CEM (V): 0.000000
Bias Keithley B (V): -30.000000
Name region: 
Region 2:
Initial energy (eV): 70.000000
Final energy (eV): 102.000000
Delta energy (eV): 1.000000
Deviation angle choice: Higher order rejection
Deviation angle (°): NaN
Si filter
G1200 channel
range keithley B 20 nA
range keithley C 200 nA
range keithley A 20 nA
Var_1: PsiC 0.000000
Var_2: PhiM0.000000
Bias CEM (V): 0.000000
Bias Keithley B (V): -30.000000
Name region: 
Region 3:
Initial energy (eV): 98.000000
Final energy (eV): 260.000000
Delta energy (eV): 1.000000
Deviation angle choice: Higher order rejection
Deviation angle (°): NaN
Full Beam
G1200 channel
range keithley B 20 nA
range keithley C 200 nA
range keithley A 200 nA
Var_1: PsiC 0.000000
Var_2: PhiM0.000000
Bias CEM (V): 0.000000
Bias Keithley B (V): -30.000000
Name region: 
Region 4:
Initial energy (eV): 255.000000
Final energy (eV): 320.000000
Delta energy (eV): 1.000000
Deviation angle choice: Higher order rejection
Deviation angle (°): NaN
filter Ag 0.6 um
G1200 channel
range keithley B 200 pA
range keithley C 200 nA
range keithley A 200 pA
Var_1: PsiC 0.000000
Var_2: PhiM0.000000
Bias CEM (V): 0.000000
Bias Keithley B (V): -30.000000
Name region: 
Region 5:
Initial energy (eV): 315.000000
Final energy (eV): 1200.000000
Delta energy (eV): 5.000000
Deviation angle choice: Higher order rejection
Deviation angle (°): NaN
Full Beam
G1200 channel
range keithley B 20 nA
range keithley C 200 nA
range keithley A 20 nA
Var_1: PsiC 0.000000
Var_2: PhiM0.000000
Bias CEM (V): 0.000000
Bias Keithley B (V): -30.000000
Name region: 
Region 6:
Initial energy (eV): 1190.000000
Final energy (eV): 1500.000000
Delta energy (eV): 5.000000
Deviation angle choice: Higher order rejection
Deviation angle (°): NaN
filter Ag 0.6 um
G1200 channel
range keithley B 200 pA
range keithley C 200 nA
range keithley A 200 pA
Var_1: PsiC 0.000000
Var_2: PhiM0.000000
Bias CEM (V): 0.000000
Bias Keithley B (V): -30.000000
Name region: 

BEAR MONOCHROMATOR CONFIGURATION: 
Current Grating Position:     160137.80
Current Mirror Position: 298443.6
Current Grating: G1200
P2 phiz position:  0.0000
Mono axis position: 25.0000
Current Photon Energy (eV): 1500.015
Current Deviation Angle: 175.800
Vertical Exit Slits (um): 100.000
Exit slit y axis position: 1.3625
Horizontal Exit Slits (um):  889.156
Exit slit z axis position: 1.9229
Mitutoyo position (mm): 

Dose on sample (mJ/cm^2): NaN

ENERGY CALIBRATION:
offset grating G1200: yes
Delta 0 order G1200:  -1100.0
offset grating G1800: not
Delta 0 order G1800:  0.0
offset grating GNIM: not
Delta 0 order GNIM:  0.0
ZERO ORDER POSITIONS:
Grating G1200: Mirror position:  4938.0
Grating position: -105355.0
Grating G1800: 
Mirror position:  4938.0
Grating position: -106345.0
Grating GNIM: 
Mirror position:  10000.0
Grating position: 227300.0

Initial filter: Ag filter 0.6 um

EXPERIMENTAL CHAMBER CONFIGURATION: 
PsiC (deg):   -0.000186
Phi Analyzer (degrees): 89.993255
Theta Manipulator (degrees): -44.000040
Theta Analyzer (degrees): -135.001468
PhiM (degrees): -0.003077
XM (mm): -11.999075
YM (mm): 9.947225
ZM (mm): (Warning: for kinetic energy scans, 
this parameter is given in the scan settings) 
-6.001413
TiltM (°): 0.000138

ELECTRON ANALYZER CONFIGURATION: 
Current Kinetik energy (eV): 35.0
Mode: DE = COST
Pass Energy (eV):  100.000
CEM: ON
Bias Front-Back CEM (V): 3499.698
Bias Back-Collector CEM (V): 100.874
Bias Retard-Front CEM: 100.104COIL VALUES
Ix (amps):2.820
Iy (amps): 6.789
Iz (amps): 37.403

POLARIZATION SELECTOR CONFIGURATION:
Psi1 (rad): -0.001665535
Psi2 (rad): 0.001417093
Z min position (mm): 46.599650
DZ position (mm): 18.599100
Zmin 0 (mm): 65.700000
DZ0 (mm): 54.000000

BEAM SELECTOR CONFIGURATION:
Zmin position (mm): NaN
DZ position (mm): NaN
Y+ position (mm): NaN
Y- position (mm): NaN

CHANNEL ELECTRON MULTIPLIER CONFIGURATION:
CEM configured: OFF
Bias CEM: 0.000000

FLUORESCENCE DETECTOR CONFIGURATION:
Not configured

LUMINESCENCE MONOCHROMATOR CONFIGURATION:
Optical fiber position (mm): 0.000000
Optical fiber Switch inside: ON
Optical fiber Switch outside: ON
Monochromator wavelength (A): 0.000000
Limit Switches: ON

I0 MONITOR PARAMETERS:
I0 detector position(mm): NaN
Lower switch: OFF
Upper switch: OFF
Valve status:unread

PRESSURE PARAMETERS:
Monitor chamber pressure (mbar): 9.13e-10
Experimental chamber pressure -ION GAUGE-(mbar): 0.000000E+0

XMCD PARAMETERS:
Xmcd OFF
Xmcd Direction -
Xmcd current (A): 0.000000

Gated scan off

Instrument 1: AMMETER KEITHLEY 6517A B
Measure type: Current
range type: set range value
range value (ampere):  200 pA
Integration time:  set NPLC value
NPLC value: 10.000
Digital filter count: 2
SAMPLE BIAS (V): -30.000
Vsource: ON
Output Voltage value: 30.000
Vsource range: 1000 V

Range Keithley B changed to 20 nA

Range Keithley B changed to 200 pA

Range Keithley B changed to 20 nA

Range Keithley B changed to 200 pA

Keithley B Bias (V) changed to: 0.000000

Range Keithley B changed to 20 nA

Keithley B Bias (V) changed to: -30.000000

Range Keithley B changed to 200 pA

Range Keithley B changed to 20 nA

Range Keithley B changed to 200 pA

Range Keithley B changed to 20 nA

Range Keithley B changed to 200 pA

Range Keithley B changed to 20 nA

Range Keithley B changed to 200 pA

Instrument 2: AMMETER KEITHLEY 6517A A
Measure type: Current
range type: set range value
range value (ampere):  200 pA
Integration time:  set NPLC value
NPLC value: 10.000
Digital filter count: 2
Vsource: OFF
Output Voltage value: -0.000
Vsource range: 100 V
Trigger source: bus

Range Keithley A changed to 20 nA

Range Keithley A changed to 200 nA

Range Keithley A changed to 200 pA

Range Keithley A changed to 20 nA

Range Keithley A changed to 200 pA

Range Keithley A changed to 20 nA

Range Keithley A changed to 200 nA

Range Keithley A changed to 200 pA

Range Keithley A changed to 20 nA

Range Keithley A changed to 200 pA

Range Keithley A changed to 20 nA

Range Keithley A changed to 200 nA

Range Keithley A changed to 200 pA

Range Keithley A changed to 20 nA

Range Keithley A changed to 200 pA

Instrument 3: COUNTER ORTEC 996Integration time (sec): 1.000


Range Keithley C changed to 200 nA


Range Keithley C changed to 2 uA


Range Keithley C changed to 200 nA


________________________________________________________________________________

RelativeTime (msec)	Photon Energy	Var_1	Var_2	INSTR_1_Sample with Bias _(ampere ) 	INSTR_2_Monitor IM_(ampere)  	INSTR_3_Ortec 996 counts_(counts)	I_BPM_sum (Amps)	
________________________________________________________________________________

2.14772300E+6	1.18998825E+3	0.00000000E+0	0.00000000E+0	1.12550000E-12	1.69538300E-10	6.00000000E+0	8.93133389E-5
2.15388300E+6	1.19502387E+3	0.00000000E+0	0.00000000E+0	1.08640000E-12	1.64670100E-10	3.00000000E+0	8.93240648E-5
2.15930600E+6	1.19997124E+3	0.00000000E+0	0.00000000E+0	1.04470000E-12	1.57986800E-10	4.00000000E+0	8.96300184E-5
2.16413400E+6	1.20502146E+3	0.00000000E+0	0.00000000E+0	1.02830000E-12	1.56834900E-10	5.00000000E+0	8.93455522E-5
2.16896000E+6	1.20999541E+3	0.00000000E+0	0.00000000E+0	1.02190000E-12	1.55662400E-10	7.00000000E+0	8.97065538E-5
2.17374700E+6	1.21500738E+3	0.00000000E+0	0.00000000E+0	1.01510000E-12	1.54287700E-10	6.00000000E+0	8.95430701E-5
2.17853600E+6	1.21999651E+3	0.00000000E+0	0.00000000E+0	1.00380000E-12	1.52694200E-10	3.00000000E+0	8.93641131E-5
2.18333800E+6	1.22500141E+3	0.00000000E+0	0.00000000E+0	9.85100000E-13	1.50921900E-10	1.20000000E+1	8.95137447E-5
2.18814700E+6	1.23000107E+3	0.00000000E+0	0.00000000E+0	9.67200000E-13	1.48907300E-10	8.00000000E+0	8.94771265E-5
2.19296100E+6	1.23500632E+3	0.00000000E+0	0.00000000E+0	9.62600000E-13	1.46724600E-10	3.00000000E+0	8.94395965E-5
2.19773800E+6	1.23999051E+3	0.00000000E+0	0.00000000E+0	9.40200000E-13	1.44335300E-10	4.00000000E+0	8.93754142E-5
2.20253100E+6	1.24499890E+3	0.00000000E+0	0.00000000E+0	9.26700000E-13	1.41772800E-10	3.00000000E+0	8.94933390E-5
2.20733100E+6	1.24999478E+3	0.00000000E+0	0.00000000E+0	9.12900000E-13	1.39034900E-10	4.00000000E+0	8.95193535E-5
2.21211800E+6	1.25499955E+3	0.00000000E+0	0.00000000E+0	8.95300000E-13	1.36106200E-10	2.00000000E+0	8.92321186E-5
2.21692800E+6	1.26000055E+3	0.00000000E+0	0.00000000E+0	8.85700000E-13	1.33012200E-10	4.00000000E+0	8.93489736E-5
2.22170500E+6	1.26499457E+3	0.00000000E+0	0.00000000E+0	9.02200000E-13	1.29368300E-10	2.00000000E+0	8.95345914E-5
2.22650500E+6	1.26999377E+3	0.00000000E+0	0.00000000E+0	1.09310000E-12	1.25893000E-10	0.00000000E+0	8.94377934E-5
2.23134400E+6	1.27500561E+3	0.00000000E+0	0.00000000E+0	9.92300000E-13	1.22760900E-10	1.00000000E+0	8.89675902E-5
2.23614800E+6	1.27999597E+3	0.00000000E+0	0.00000000E+0	8.83900000E-13	1.19568500E-10	2.00000000E+0	8.93136667E-5
2.24094000E+6	1.28500343E+3	0.00000000E+0	0.00000000E+0	8.81400000E-13	1.16253400E-10	1.00000000E+0	8.90062915E-5
2.24574100E+6	1.29000382E+3	0.00000000E+0	0.00000000E+0	8.28600000E-13	1.12845600E-10	6.00000000E+0	8.91981857E-5
2.25052100E+6	1.29498365E+3	0.00000000E+0	0.00000000E+0	8.19200000E-13	1.09419800E-10	5.00000000E+0	8.92917769E-5
2.25533600E+6	1.29998704E+3	0.00000000E+0	0.00000000E+0	8.06900000E-13	1.05948900E-10	3.00000000E+0	8.91127961E-5
2.26011800E+6	1.30500660E+3	0.00000000E+0	0.00000000E+0	7.94300000E-13	1.02492100E-10	3.00000000E+0	8.94217955E-5
2.26493000E+6	1.30998983E+3	0.00000000E+0	0.00000000E+0	7.70900000E-13	9.90404000E-11	1.00000000E+0	8.91747402E-5
2.26970800E+6	1.31500482E+3	0.00000000E+0	0.00000000E+0	7.46700000E-13	9.55848000E-11	4.00000000E+0	8.93613683E-5
2.27450600E+6	1.31999292E+3	0.00000000E+0	0.00000000E+0	7.20300000E-13	9.21293000E-11	2.00000000E+0	8.92058360E-5
2.27917600E+6	1.32496241E+3	0.00000000E+0	0.00000000E+0	6.95500000E-13	8.87004000E-11	2.00000000E+0	8.91116308E-5
2.28473800E+6	1.33002082E+3	0.00000000E+0	0.00000000E+0	6.71400000E-13	8.51951000E-11	0.00000000E+0	8.91743885E-5
2.28952300E+6	1.33500974E+3	0.00000000E+0	0.00000000E+0	6.49500000E-13	8.17919000E-11	0.00000000E+0	8.92651605E-5
2.29433000E+6	1.33998571E+3	0.00000000E+0	0.00000000E+0	6.29300000E-13	7.84325000E-11	2.00000000E+0	8.90049981E-5
2.29914600E+6	1.34499244E+3	0.00000000E+0	0.00000000E+0	6.08200000E-13	7.50766000E-11	0.00000000E+0	8.89269339E-5
2.30396300E+6	1.34999693E+3	0.00000000E+0	0.00000000E+0	5.99000000E-13	7.17960000E-11	1.00000000E+0	8.93444138E-5
2.30876200E+6	1.35500319E+3	0.00000000E+0	0.00000000E+0	5.74400000E-13	6.85775000E-11	3.00000000E+0	8.91246693E-5
2.31356300E+6	1.36000038E+3	0.00000000E+0	0.00000000E+0	5.65200000E-13	6.53751000E-11	1.00000000E+0	8.91463148E-5
2.31818800E+6	1.36497487E+3	0.00000000E+0	0.00000000E+0	5.45300000E-13	6.22630000E-11	2.00000000E+0	8.93795597E-5
2.32286800E+6	1.36999832E+3	0.00000000E+0	0.00000000E+0	5.28600000E-13	5.91583000E-11	1.00000000E+0	8.90606480E-5
2.32753000E+6	1.37501039E+3	0.00000000E+0	0.00000000E+0	5.07800000E-13	5.62241000E-11	1.00000000E+0	8.93666374E-5
2.33220800E+6	1.37998116E+3	0.00000000E+0	0.00000000E+0	4.90500000E-13	5.34304000E-11	0.00000000E+0	8.97333371E-5
2.33687200E+6	1.38499976E+3	0.00000000E+0	0.00000000E+0	4.79400000E-13	5.05686000E-11	1.00000000E+0	8.96735864E-5
2.34165700E+6	1.39001246E+3	0.00000000E+0	0.00000000E+0	4.61500000E-13	4.77206000E-11	1.00000000E+0	8.93729436E-5
2.34641200E+6	1.39499330E+3	0.00000000E+0	0.00000000E+0	4.57500000E-13	4.49923000E-11	1.00000000E+0	8.94081193E-5
2.35105500E+6	1.39998538E+3	0.00000000E+0	0.00000000E+0	4.35700000E-13	4.23385000E-11	0.00000000E+0	8.93624859E-5
2.35573000E+6	1.40500054E+3	0.00000000E+0	0.00000000E+0	4.24400000E-13	3.97669000E-11	0.00000000E+0	8.92620789E-5
2.36039500E+6	1.40998888E+3	0.00000000E+0	0.00000000E+0	4.20000000E-13	3.72964000E-11	1.00000000E+0	8.94901651E-5
2.36516100E+6	1.41501895E+3	0.00000000E+0	0.00000000E+0	4.02100000E-13	3.48752000E-11	0.00000000E+0	8.93022495E-5
2.36980300E+6	1.41998278E+3	0.00000000E+0	0.00000000E+0	4.00400000E-13	3.26097000E-11	0.00000000E+0	8.92670499E-5
2.37446500E+6	1.42499437E+3	0.00000000E+0	0.00000000E+0	3.77200000E-13	3.04265000E-11	0.00000000E+0	8.93446492E-5
2.37913000E+6	1.43001554E+3	0.00000000E+0	0.00000000E+0	3.77500000E-13	2.83345000E-11	0.00000000E+0	8.93120902E-5
2.38378100E+6	1.43498073E+3	0.00000000E+0	0.00000000E+0	3.67300000E-13	2.63303000E-11	0.00000000E+0	8.92545330E-5
2.38844800E+6	1.44000022E+3	0.00000000E+0	0.00000000E+0	3.58500000E-13	2.44282000E-11	2.00000000E+0	8.94398408E-5
2.39312200E+6	1.44500866E+3	0.00000000E+0	0.00000000E+0	3.48700000E-13	2.26265000E-11	0.00000000E+0	8.92956214E-5
2.39776300E+6	1.44996519E+3	0.00000000E+0	0.00000000E+0	3.55200000E-13	2.09208000E-11	0.00000000E+0	8.92512696E-5
2.40239300E+6	1.45500304E+3	0.00000000E+0	0.00000000E+0	3.39100000E-13	1.93015000E-11	0.00000000E+0	8.94401240E-5
2.40704100E+6	1.46000815E+3	0.00000000E+0	0.00000000E+0	3.33800000E-13	1.77778000E-11	0.00000000E+0	8.92695563E-5
2.41170900E+6	1.46500041E+3	0.00000000E+0	0.00000000E+0	3.30800000E-13	1.63511000E-11	0.00000000E+0	8.95731317E-5
2.41636300E+6	1.46998546E+3	0.00000000E+0	0.00000000E+0	3.27900000E-13	1.50259000E-11	0.00000000E+0	8.91939001E-5
2.42103500E+6	1.47501183E+3	0.00000000E+0	0.00000000E+0	3.30200000E-13	1.37731000E-11	0.00000000E+0	8.92827558E-5
2.42568900E+6	1.48001504E+3	0.00000000E+0	0.00000000E+0	3.19000000E-13	1.25867000E-11	1.00000000E+0	8.95363199E-5
2.43036000E+6	1.48498231E+3	0.00000000E+0	0.00000000E+0	3.20100000E-13	1.14450000E-11	0.00000000E+0	8.94166457E-5
2.43501600E+6	1.49001174E+3	0.00000000E+0	0.00000000E+0	3.09800000E-13	1.04382000E-11	0.00000000E+0	8.90980201E-5
2.43970600E+6	1.49500715E+3	0.00000000E+0	0.00000000E+0	3.13100000E-13	9.50670000E-12	0.00000000E+0	8.90351878E-5
2.44438500E+6	1.50000655E+3	0.00000000E+0	0.00000000E+0	3.14000000E-13	8.65270000E-12	0.00000000E+0	8.93659937E-5
