G:\BEAR_storage\User_Experiments\20220317_arneodo\file(1)_Region 1__0040.txt
Ring Energy (GeV): 2
Lifetime (hours): 0
Scan beginning: 3/18/2022	6:36:07 PM
Ring current (mA): 82.2
Source position: x (mm): -0.121 x' (mrad): 0.192 y (mm): -0.115 y' (mrad): -0.035
Scan end: 3/18/2022	6:38:24 PM
Ring current (mA): 93.27
Source position: x (mm): -0.122 x' (mrad): 0.198 y (mm): -0.111 y' (mrad): -0.036

SCAN TYPE: PHOTON ENERGY VS VAR_1 VS VAR_2

FILE INFO: FILE INFO:

SCAN PARAMETERS
waiting time (ms): 0
Number of scans: 1
Current scan number: 1
DARK OFF 
PREDARK OFF 

SCAN PARAMETERS
Regions configuration: 
number of regions: 6
Mirror grating scan: on
Timed acquisition: off
Region 1:
Initial energy (eV): 40.000000
Final energy (eV): 72.000000
Delta energy (eV): 1.000000
Deviation angle choice: Higher order rejection
Deviation angle (°): NaN
Al filter
G1200 channel
range keithley B 20 nA
range keithley C 200 nA
range keithley A 20 nA
Var_1: PsiC 0.000000
Var_2: PhiM0.000000
Bias CEM (V): 0.000000
Bias Keithley B (V): -30.000000
Name region: 
Region 2:
Initial energy (eV): 70.000000
Final energy (eV): 102.000000
Delta energy (eV): 1.000000
Deviation angle choice: Higher order rejection
Deviation angle (°): NaN
Si filter
G1200 channel
range keithley B 20 nA
range keithley C 200 nA
range keithley A 20 nA
Var_1: PsiC 0.000000
Var_2: PhiM0.000000
Bias CEM (V): 0.000000
Bias Keithley B (V): -30.000000
Name region: 
Region 3:
Initial energy (eV): 98.000000
Final energy (eV): 260.000000
Delta energy (eV): 1.000000
Deviation angle choice: Higher order rejection
Deviation angle (°): NaN
Full Beam
G1200 channel
range keithley B 20 nA
range keithley C 200 nA
range keithley A 200 nA
Var_1: PsiC 0.000000
Var_2: PhiM0.000000
Bias CEM (V): 0.000000
Bias Keithley B (V): -30.000000
Name region: 
Region 4:
Initial energy (eV): 255.000000
Final energy (eV): 320.000000
Delta energy (eV): 1.000000
Deviation angle choice: Higher order rejection
Deviation angle (°): NaN
filter Ag 0.6 um
G1200 channel
range keithley B 200 pA
range keithley C 200 nA
range keithley A 200 pA
Var_1: PsiC 0.000000
Var_2: PhiM0.000000
Bias CEM (V): 0.000000
Bias Keithley B (V): -30.000000
Name region: 
Region 5:
Initial energy (eV): 315.000000
Final energy (eV): 1200.000000
Delta energy (eV): 5.000000
Deviation angle choice: Higher order rejection
Deviation angle (°): NaN
Full Beam
G1200 channel
range keithley B 20 nA
range keithley C 200 nA
range keithley A 20 nA
Var_1: PsiC 0.000000
Var_2: PhiM0.000000
Bias CEM (V): 0.000000
Bias Keithley B (V): -30.000000
Name region: 
Region 6:
Initial energy (eV): 1190.000000
Final energy (eV): 1500.000000
Delta energy (eV): 5.000000
Deviation angle choice: Higher order rejection
Deviation angle (°): NaN
filter Ag 0.6 um
G1200 channel
range keithley B 200 pA
range keithley C 200 nA
range keithley A 200 pA
Var_1: PsiC 0.000000
Var_2: PhiM0.000000
Bias CEM (V): 0.000000
Bias Keithley B (V): -30.000000
Name region: 

BEAR MONOCHROMATOR CONFIGURATION: 
Current Grating Position:     -236072.20
Current Mirror Position: 2557.0
Current Grating: G1200
P2 phiz position:  0.0000
Mono axis position: 25.0000
Current Photon Energy (eV): 40.000
Current Deviation Angle: 155.000
Vertical Exit Slits (um): 450.000
Exit slit y axis position: 2.2375
Horizontal Exit Slits (um):  889.156
Exit slit z axis position: 1.9229
Mitutoyo position (mm): 

Dose on sample (mJ/cm^2): NaN

ENERGY CALIBRATION:
offset grating G1200: yes
Delta 0 order G1200:  -800.0
offset grating G1800: not
Delta 0 order G1800:  0.0
offset grating GNIM: not
Delta 0 order GNIM:  0.0
ZERO ORDER POSITIONS:
Grating G1200: Mirror position:  4938.0
Grating position: -105355.0
Grating G1800: 
Mirror position:  4938.0
Grating position: -106345.0
Grating GNIM: 
Mirror position:  10000.0
Grating position: 227300.0

Initial filter: Al filter

EXPERIMENTAL CHAMBER CONFIGURATION: 
PsiC (deg):   -0.000186
Phi Analyzer (degrees): 89.992308
Theta Manipulator (degrees): -44.000040
Theta Analyzer (degrees): -135.001468
PhiM (degrees): -0.004103
XM (mm): 0.000713
YM (mm): 19.932987
ZM (mm): (Warning: for kinetic energy scans, 
this parameter is given in the scan settings) 
-6.601438
TiltM (°): 0.000138

ELECTRON ANALYZER CONFIGURATION: 
Current Kinetik energy (eV): 35.0
Mode: DE = COST
Pass Energy (eV):  50.000
CEM: ON
Bias Front-Back CEM (V): 3499.561
Bias Back-Collector CEM (V): 100.874
Bias Retard-Front CEM: 100.087COIL VALUES
Ix (amps):2.820
Iy (amps): 6.789
Iz (amps): 37.337

POLARIZATION SELECTOR CONFIGURATION:
Psi1 (rad): -0.001665535
Psi2 (rad): 0.001417093
Z min position (mm): 46.599650
DZ position (mm): 18.599100
Zmin 0 (mm): 66.500000
DZ0 (mm): 53.000000

BEAM SELECTOR CONFIGURATION:
Zmin position (mm): NaN
DZ position (mm): NaN
Y+ position (mm): NaN
Y- position (mm): NaN

CHANNEL ELECTRON MULTIPLIER CONFIGURATION:
CEM configured: OFF
Bias CEM: 0.000000

FLUORESCENCE DETECTOR CONFIGURATION:
Not configured

LUMINESCENCE MONOCHROMATOR CONFIGURATION:
Optical fiber position (mm): 0.000000
Optical fiber Switch inside: OFF
Optical fiber Switch outside: ON
Monochromator wavelength (A): 0.000000
Limit Switches: ON

I0 MONITOR PARAMETERS:
I0 detector position(mm): -0.000000E+0
Lower switch: OFF
Upper switch: OFF
Valve status:open

PRESSURE PARAMETERS:
Monitor chamber pressure (mbar): 9.288e-10
Experimental chamber pressure -ION GAUGE-(mbar): 0.000000E+0

XMCD PARAMETERS:
Xmcd OFF
Xmcd Direction -
Xmcd current (A): 0.000000

Gated scan off

Instrument 1: AMMETER KEITHLEY 6517A B
Measure type: Current
range type: set range value
range value (ampere):  200 pA
Integration time:  set NPLC value
NPLC value: 10.000
Digital filter count: 2
SAMPLE BIAS (V): -30.000
Vsource: ON
Output Voltage value: 30.000
Vsource range: 1000 V

Range Keithley B changed to 20 nA

Range Keithley B changed to 200 pA

Range Keithley B changed to 20 nA

Range Keithley B changed to 200 pA

Range Keithley B changed to 20 nA

Range Keithley B changed to 200 pA

Range Keithley B changed to 20 nA

Range Keithley B changed to 200 nA

Range Keithley B changed to 200 pA

Range Keithley B changed to 20 nA

Range Keithley B changed to 200 pA

Range Keithley B changed to 20 nA

Range Keithley B changed to 200 pA

Range Keithley B changed to 20 nA

Range Keithley B changed to 200 pA

Range Keithley B changed to 20 nA

Range Keithley B changed to 200 pA

Range Keithley B changed to 20 nA

Instrument 2: AMMETER KEITHLEY 6517A A
Measure type: Current
range type: set range value
range value (ampere):  200 nA
Integration time:  set NPLC value
NPLC value: 10.000
Digital filter count: 2
Vsource: OFF
Output Voltage value: -0.000
Vsource range: 100 V
Trigger source: bus

Range Keithley A changed to 20 nA

Range Keithley A changed to 200 nA

Range Keithley A changed to 200 pA

Range Keithley A changed to 20 nA

Range Keithley A changed to 200 pA

Range Keithley A changed to 20 nA

Range Keithley A changed to 200 nA

Range Keithley A changed to 200 pA

Range Keithley A changed to 20 nA

Range Keithley A changed to 200 pA

Range Keithley A changed to 20 nA

Range Keithley A changed to 200 nA

Range Keithley A changed to 200 pA

Range Keithley A changed to 20 nA

Range Keithley A changed to 200 pA

Range Keithley A changed to 20 nA

Range Keithley A changed to 200 pA

Range Keithley A changed to 20 nA

Range Keithley A changed to 200 pA

Range Keithley A changed to 20 nA

Range Keithley A changed to 200 pA

Range Keithley A changed to 20 nA

Range Keithley A changed to 200 nA

Range Keithley A changed to 200 pA

Range Keithley A changed to 20 nA

Range Keithley A changed to 200 pA

Range Keithley A changed to 20 nA

Range Keithley A changed to 200 nA

Range Keithley A changed to 200 pA

Range Keithley A changed to 20 nA

Range Keithley A changed to 200 nA

Range Keithley A changed to 200 pA

Range Keithley A changed to 20 nA

Range Keithley A changed to 200 pA

Range Keithley A changed to 20 nA

Range Keithley A changed to 200 pA

Range Keithley A changed to 20 nA

Range Keithley A changed to 200 nA

Range Keithley A changed to 200 pA

Range Keithley A changed to 20 nA

Range Keithley A changed to 200 pA

Range Keithley A changed to 20 nA

Range Keithley A changed to 200 nA

Range Keithley A changed to 20 nA

Instrument 3: AMMETER KEITHLEY 6517A C 
Measure type: Current
range type: set range value
range value (ampere):  20 uA
Integration time:  set NPLC value
NPLC value: 10.000
Digital filter count: 2
Vsource: OFF
Output Voltage value: -0.000
Vsource range: 100 V
Trigger source: bus


Range Keithley C changed to 200 nA


________________________________________________________________________________

RelativeTime (msec)	Photon Energy	Var_1	Var_2	INSTR_1_Sample with Bias _(ampere ) 	INSTR_2_Monitor IM_(ampere)  	INSTR_3_Diode A3_(ampere)	I_BPM_sum (Amps)	
________________________________________________________________________________

1.77200000E+3	4.00000216E+1	0.00000000E+0	0.00000000E+0	-4.50000000E-13	6.40000000E-13	-1.79000000E-11	-1.89616107E-6
6.80200000E+3	4.09998502E+1	0.00000000E+0	0.00000000E+0	-1.30000000E-13	6.60000000E-13	-1.68000000E-11	-1.89015292E-6
1.09730000E+4	4.19999096E+1	0.00000000E+0	0.00000000E+0	-3.30000000E-13	6.40000000E-13	-1.82000000E-11	-1.89218246E-6
1.51780000E+4	4.30000736E+1	0.00000000E+0	0.00000000E+0	-1.00000000E-13	7.00000000E-13	-1.31000000E-11	-1.89843200E-6
1.93930000E+4	4.39999576E+1	0.00000000E+0	0.00000000E+0	-2.90000000E-13	6.00000000E-13	-1.86000000E-11	-1.89230763E-6
2.35260000E+4	4.49998743E+1	0.00000000E+0	0.00000000E+0	0.00000000E+0	6.60000000E-13	-1.78000000E-11	-1.89696275E-6
2.75980000E+4	4.59999650E+1	0.00000000E+0	0.00000000E+0	3.00000000E-14	6.70000000E-13	-1.67000000E-11	-1.88768529E-6
3.17520000E+4	4.70000736E+1	0.00000000E+0	0.00000000E+0	-4.00000000E-14	6.30000000E-13	-1.32000000E-11	-1.87373482E-6
3.58050000E+4	4.80000110E+1	0.00000000E+0	0.00000000E+0	-1.20000000E-13	6.50000000E-13	-1.44000000E-11	-1.90197252E-6
3.97130000E+4	4.89997604E+1	0.00000000E+0	0.00000000E+0	-4.20000000E-13	6.60000000E-13	-1.25000000E-11	-1.88170694E-6
4.36410000E+4	5.00000827E+1	0.00000000E+0	0.00000000E+0	-3.10000000E-13	6.30000000E-13	-1.43000000E-11	-1.87810980E-6
4.75080000E+4	5.09999338E+1	0.00000000E+0	0.00000000E+0	2.00000000E-14	5.90000000E-13	-1.75000000E-11	-1.88187681E-6
5.14450000E+4	5.20000085E+1	0.00000000E+0	0.00000000E+0	-3.70000000E-13	7.00000000E-13	-1.52000000E-11	-1.91040658E-6
5.53530000E+4	5.29997623E+1	0.00000000E+0	0.00000000E+0	-1.70000000E-13	5.50000000E-13	-1.54000000E-11	-1.87533818E-6
5.91410000E+4	5.40000709E+1	0.00000000E+0	0.00000000E+0	-5.20000000E-13	6.00000000E-13	-1.55000000E-11	-1.89299904E-6
6.29090000E+4	5.49999130E+1	0.00000000E+0	0.00000000E+0	-1.20000000E-13	6.60000000E-13	-1.87000000E-11	-1.90871381E-6
6.66490000E+4	5.60000672E+1	0.00000000E+0	0.00000000E+0	7.00000000E-14	5.80000000E-13	-1.56000000E-11	-1.87049828E-6
7.04420000E+4	5.69999843E+1	0.00000000E+0	0.00000000E+0	-3.60000000E-13	6.60000000E-13	-1.71000000E-11	-1.86159931E-6
7.42220000E+4	5.79999099E+1	0.00000000E+0	0.00000000E+0	-2.60000000E-13	6.60000000E-13	-1.75000000E-11	-1.87109433E-6
7.78590000E+4	5.89995795E+1	0.00000000E+0	0.00000000E+0	-5.20000000E-13	6.80000000E-13	-1.76000000E-11	-1.88406430E-6
8.15270000E+4	6.00001720E+1	0.00000000E+0	0.00000000E+0	-2.00000000E-14	6.00000000E-13	-1.17000000E-11	-1.90453254E-6
8.52060000E+4	6.10002196E+1	0.00000000E+0	0.00000000E+0	3.00000000E-14	7.60000000E-13	-2.05000000E-11	-1.89107977E-6
8.87960000E+4	6.19997603E+1	0.00000000E+0	0.00000000E+0	-2.60000000E-13	5.60000000E-13	-1.21000000E-11	-1.87077247E-6
9.24140000E+4	6.29999726E+1	0.00000000E+0	0.00000000E+0	-2.40000000E-13	7.30000000E-13	-1.40000000E-11	-1.86725579E-6
9.61200000E+4	6.40000380E+1	0.00000000E+0	0.00000000E+0	-4.80000000E-13	8.00000000E-13	-1.44000000E-11	-1.88170992E-6
9.97870000E+4	6.49999632E+1	0.00000000E+0	0.00000000E+0	-3.00000000E-14	6.40000000E-13	-2.00000000E-11	-1.86076186E-6
1.03359000E+5	6.59996832E+1	0.00000000E+0	0.00000000E+0	-3.10000000E-13	6.10000000E-13	-1.50000000E-11	-1.89339839E-6
1.06866000E+5	6.69998384E+1	0.00000000E+0	0.00000000E+0	-6.00000000E-14	7.00000000E-13	-1.54000000E-11	-1.87228940E-6
1.10426000E+5	6.80005075E+1	0.00000000E+0	0.00000000E+0	-1.70000000E-13	6.50000000E-13	-1.27000000E-11	-1.90221094E-6
1.13949000E+5	6.89998897E+1	0.00000000E+0	0.00000000E+0	-3.50000000E-13	6.50000000E-13	-1.72000000E-11	-1.86299108E-6
1.17555000E+5	6.99999131E+1	0.00000000E+0	0.00000000E+0	-6.00000000E-14	6.70000000E-13	-1.37000000E-11	-1.87268876E-6
1.21069000E+5	7.10001332E+1	0.00000000E+0	0.00000000E+0	1.40000000E-13	6.40000000E-13	-1.92000000E-11	-1.88978635E-6
1.24635000E+5	7.19998175E+1	0.00000000E+0	0.00000000E+0	-4.90000000E-13	6.20000000E-13	-1.38000000E-11	-1.87211059E-6
