G:\BEAR_storage\User_Experiments\20220317_arneodo\file(1)_Region 5__0082.txt
Ring Energy (GeV): 2
Lifetime (hours): 0
Scan beginning: 3/21/2022	9:34:35 PM
Ring current (mA): 309.4
Source position: x (mm): 0.007 x' (mrad): 0.001 y (mm): -0.001 y' (mrad): -0.001
Scan end: 3/21/2022	10:08:45 PM
Ring current (mA): 308.41
Source position: x (mm): 0.008 x' (mrad): 0 y (mm): -0.001 y' (mrad): -0.001

SCAN TYPE: PHOTON ENERGY VS VAR_1 VS VAR_2

FILE INFO: FILE INFO:

SCAN PARAMETERS
waiting time (ms): 1000
Number of scans: 1
Current scan number: 1
DARK OFF 
PREDARK OFF 

SCAN PARAMETERS
Regions configuration: 
number of regions: 7
Mirror grating scan: on
Timed acquisition: off
Region 1:
Initial energy (eV): 3.000000
Final energy (eV): 4.500000
Delta energy (eV): 0.100000
Deviation angle choice: Degrees: 
Deviation angle (°): NaN
B270 window
GNIM channel
range keithley B 200 pA
range keithley C 200 pA
range keithley A 200 pA
Var_1: PsiC 0.000000
Var_2: PhiM0.000000
Bias CEM (V): 0.000000
Bias Keithley B (V): -30.000000
Name region: 
Region 2:
Initial energy (eV): 4.000000
Final energy (eV): 8.000000
Delta energy (eV): 0.100000
Deviation angle choice: Degrees: 
Deviation angle (°): NaN
SiO2 window
GNIM channel
range keithley B 200 pA
range keithley C 200 pA
range keithley A 200 pA
Var_1: PsiC 0.000000
Var_2: PhiM0.000000
Bias CEM (V): 0.000000
Bias Keithley B (V): -30.000000
Name region: 
Region 3:
Initial energy (eV): 7.000000
Final energy (eV): 12.000000
Delta energy (eV): 0.100000
Deviation angle choice: Degrees: 
Deviation angle (°): NaN
filter LiF window
GNIM channel
range keithley B 200 pA
range keithley C 200 pA
range keithley A 200 pA
Var_1: PsiC 0.000000
Var_2: PhiM0.000000
Bias CEM (V): 0.000000
Bias Keithley B (V): -30.000000
Name region: 
Region 4:
Initial energy (eV): 11.000000
Final energy (eV): 18.000000
Delta energy (eV): 0.100000
Deviation angle choice: Degrees: 
Deviation angle (°): NaN
In filter
GNIM channel
range keithley B 200 pA
range keithley C 200 pA
range keithley A 200 pA
Var_1: PsiC 0.000000
Var_2: PhiM0.000000
Bias CEM (V): 0.000000
Bias Keithley B (V): -30.000000
Name region: 
Region 5:
Initial energy (eV): 15.000000
Final energy (eV): 25.000000
Delta energy (eV): 0.100000
Deviation angle choice: Degrees: 
Deviation angle (°): NaN
Sn filter
GNIM channel
range keithley B 200 pA
range keithley C 200 pA
range keithley A 200 pA
Var_1: PsiC 0.000000
Var_2: PhiM0.000000
Bias CEM (V): 0.000000
Bias Keithley B (V): -30.000000
Name region: 
Region 6:
Initial energy (eV): 23.000000
Final energy (eV): 45.000000
Delta energy (eV): 0.100000
Deviation angle choice: Degrees: 
Deviation angle (°): NaN
Full Beam
GNIM channel
range keithley B 20 nA
range keithley C 200 pA
range keithley A 20 nA
Var_1: PsiC 0.000000
Var_2: PhiM0.000000
Bias CEM (V): 0.000000
Bias Keithley B (V): -30.000000
Name region: 
Region 7:
Initial energy (eV): 23.000000
Final energy (eV): 45.000000
Delta energy (eV): 0.100000
Deviation angle choice: Degrees: 
Deviation angle (°): NaN
Al filter
GNIM channel
range keithley B 20 nA
range keithley C 200 pA
range keithley A 20 nA
Var_1: PsiC 0.000000
Var_2: PhiM0.000000
Bias CEM (V): 0.000000
Bias Keithley B (V): -30.000000
Name region: 

BEAR MONOCHROMATOR CONFIGURATION: 
Current Grating Position:     200056.70
Current Mirror Position: 9999.9
Current Grating: GNIM
P2 phiz position:  -0.0195
Mono axis position: 73.5000
Current Photon Energy (eV): 45.000
Current Deviation Angle: 29.905
Vertical Exit Slits (um): 100.000
Exit slit y axis position: 1.3625
Horizontal Exit Slits (um):  889.156
Exit slit z axis position: 1.9229
Mitutoyo position (mm): 

Dose on sample (mJ/cm^2): NaN

ENERGY CALIBRATION:
offset grating G1200: yes
Delta 0 order G1200:  -1100.0
offset grating G1800: not
Delta 0 order G1800:  0.0
offset grating GNIM: not
Delta 0 order GNIM:  0.0
ZERO ORDER POSITIONS:
Grating G1200: Mirror position:  4938.0
Grating position: -105355.0
Grating G1800: 
Mirror position:  4938.0
Grating position: -106345.0
Grating GNIM: 
Mirror position:  10000.0
Grating position: 227300.0

Initial filter: Al filter

EXPERIMENTAL CHAMBER CONFIGURATION: 
PsiC (deg):   -0.000186
Phi Analyzer (degrees): 89.993255
Theta Manipulator (degrees): -44.000040
Theta Analyzer (degrees): -135.001468
PhiM (degrees): -0.003077
XM (mm): -4.499087
YM (mm): 22.946963
ZM (mm): (Warning: for kinetic energy scans, 
this parameter is given in the scan settings) 
-14.001363
TiltM (°): 0.000138

ELECTRON ANALYZER CONFIGURATION: 
Current Kinetik energy (eV): 35.0
Mode: DE = COST
Pass Energy (eV):  100.000
CEM: ON
Bias Front-Back CEM (V): 3499.698
Bias Back-Collector CEM (V): 100.874
Bias Retard-Front CEM: 100.104COIL VALUES
Ix (amps):2.820
Iy (amps): 6.789
Iz (amps): 37.403

POLARIZATION SELECTOR CONFIGURATION:
Psi1 (rad): -0.001665535
Psi2 (rad): 0.001417093
Z min position (mm): 46.599650
DZ position (mm): 18.599100
Zmin 0 (mm): 65.700000
DZ0 (mm): 54.000000

BEAM SELECTOR CONFIGURATION:
Zmin position (mm): NaN
DZ position (mm): NaN
Y+ position (mm): NaN
Y- position (mm): NaN

CHANNEL ELECTRON MULTIPLIER CONFIGURATION:
CEM configured: OFF
Bias CEM: 0.000000

FLUORESCENCE DETECTOR CONFIGURATION:
Not configured

LUMINESCENCE MONOCHROMATOR CONFIGURATION:
Optical fiber position (mm): 0.000000
Optical fiber Switch inside: ON
Optical fiber Switch outside: ON
Monochromator wavelength (A): 0.000000
Limit Switches: ON

I0 MONITOR PARAMETERS:
I0 detector position(mm): NaN
Lower switch: OFF
Upper switch: OFF
Valve status:unread

PRESSURE PARAMETERS:
Monitor chamber pressure (mbar): 9.041e-10
Experimental chamber pressure -ION GAUGE-(mbar): 0.000000E+0

XMCD PARAMETERS:
Xmcd OFF
Xmcd Direction -
Xmcd current (A): 0.000000

Gated scan off

Instrument 1: AMMETER KEITHLEY 6517A B
Measure type: Current
range type: set range value
range value (ampere):  200 pA
Integration time:  set NPLC value
NPLC value: 10.000
Digital filter count: 2
SAMPLE BIAS (V): -30.000
Vsource: ON
Output Voltage value: 30.000
Vsource range: 1000 V

Range Keithley B changed to 20 nA

Range Keithley B changed to 200 pA

Range Keithley B changed to 20 nA

Range Keithley B changed to 200 pA

Keithley B Bias (V) changed to: 0.000000

Range Keithley B changed to 20 nA

Keithley B Bias (V) changed to: -30.000000

Range Keithley B changed to 200 pA

Range Keithley B changed to 20 nA

Range Keithley B changed to 200 pA

Range Keithley B changed to 20 nA

Range Keithley B changed to 200 pA

Range Keithley B changed to 20 nA

Range Keithley B changed to 200 pA

Keithley B Bias (V) changed to: 0.000000

Keithley B Bias (V) changed to: -30.000000

Range Keithley B changed to 20 nA

Range Keithley B changed to 200 pA

Range Keithley B changed to 20 nA

Instrument 2: AMMETER KEITHLEY 6517A A
Measure type: Current
range type: set range value
range value (ampere):  200 pA
Integration time:  set NPLC value
NPLC value: 10.000
Digital filter count: 2
Vsource: OFF
Output Voltage value: -0.000
Vsource range: 100 V
Trigger source: bus

Range Keithley A changed to 20 nA

Range Keithley A changed to 200 nA

Range Keithley A changed to 200 pA

Range Keithley A changed to 20 nA

Range Keithley A changed to 200 pA

Range Keithley A changed to 20 nA

Range Keithley A changed to 200 nA

Range Keithley A changed to 200 pA

Range Keithley A changed to 20 nA

Range Keithley A changed to 200 pA

Range Keithley A changed to 20 nA

Range Keithley A changed to 200 nA

Range Keithley A changed to 200 pA

Range Keithley A changed to 20 nA

Range Keithley A changed to 200 pA

Range Keithley A changed to 20 nA

Range Keithley A changed to 200 pA

Range Keithley A changed to 20 nA

Range Keithley A changed to 200 pA

Range Keithley A changed to 20 nA

Instrument 3: COUNTER ORTEC 996Integration time (sec): 1.000


Range Keithley C changed to 200 nA


Range Keithley C changed to 2 uA


Range Keithley C changed to 200 nA


Range Keithley C changed to 2 uA


Range Keithley C changed to 200 pA


________________________________________________________________________________

RelativeTime (msec)	Photon Energy	Var_1	Var_2	INSTR_1_Sample with Bias _(ampere ) 	INSTR_2_Monitor IM_(ampere)  	INSTR_3_Ortec 996 counts_(counts)	I_BPM_sum (Amps)	
________________________________________________________________________________

1.43725800E+6	1.50001126E+1	0.00000000E+0	0.00000000E+0	4.62960000E-12	9.21200000E-13	1.00000000E+1	8.99545002E-5
1.44471800E+6	1.50998880E+1	0.00000000E+0	0.00000000E+0	4.92290000E-12	9.92300000E-13	1.50000000E+1	8.99360615E-5
1.45081700E+6	1.52000933E+1	0.00000000E+0	0.00000000E+0	5.29550000E-12	1.06890000E-12	1.20000000E+1	9.01636112E-5
1.45703000E+6	1.52999733E+1	0.00000000E+0	0.00000000E+0	5.73590000E-12	1.17230000E-12	1.50000000E+1	9.00240111E-5
1.46305700E+6	1.54000117E+1	0.00000000E+0	0.00000000E+0	6.18340000E-12	1.26300000E-12	1.60000000E+1	9.01030201E-5
1.46937600E+6	1.55000122E+1	0.00000000E+0	0.00000000E+0	6.60650000E-12	1.34180000E-12	2.30000000E+1	9.00282759E-5
1.47574000E+6	1.56000273E+1	0.00000000E+0	0.00000000E+0	7.08760000E-12	1.43540000E-12	1.50000000E+1	8.97368300E-5
1.48176000E+6	1.56999717E+1	0.00000000E+0	0.00000000E+0	7.51930000E-12	1.52100000E-12	2.40000000E+1	8.99727750E-5
1.48813500E+6	1.58000422E+1	0.00000000E+0	0.00000000E+0	7.97100000E-12	1.61050000E-12	2.60000000E+1	9.01532877E-5
1.49447500E+6	1.58999918E+1	0.00000000E+0	0.00000000E+0	8.39720000E-12	1.69600000E-12	2.80000000E+1	8.97537100E-5
1.50057500E+6	1.60000215E+1	0.00000000E+0	0.00000000E+0	8.83460000E-12	1.79350000E-12	2.60000000E+1	8.99284083E-5
1.50678300E+6	1.61000256E+1	0.00000000E+0	0.00000000E+0	9.27410000E-12	1.88350000E-12	3.10000000E+1	8.99704504E-5
1.51279200E+6	1.62000439E+1	0.00000000E+0	0.00000000E+0	9.69520000E-12	1.96370000E-12	2.20000000E+1	8.99662334E-5
1.51897400E+6	1.62999230E+1	0.00000000E+0	0.00000000E+0	1.01475000E-11	2.06190000E-12	3.70000000E+1	8.96267730E-5
1.52522200E+6	1.64000524E+1	0.00000000E+0	0.00000000E+0	1.06270000E-11	2.16570000E-12	3.50000000E+1	8.96505254E-5
1.53123800E+6	1.64999956E+1	0.00000000E+0	0.00000000E+0	1.11375000E-11	2.26450000E-12	5.10000000E+1	8.94718277E-5
1.53752200E+6	1.66000160E+1	0.00000000E+0	0.00000000E+0	1.16642000E-11	2.37420000E-12	2.90000000E+1	8.98978579E-5
1.54376100E+6	1.67000029E+1	0.00000000E+0	0.00000000E+0	1.22175000E-11	2.48020000E-12	4.60000000E+1	8.98823815E-5
1.54966700E+6	1.67999101E+1	0.00000000E+0	0.00000000E+0	1.27932000E-11	2.61170000E-12	5.10000000E+1	8.96212327E-5
1.55579500E+6	1.69000396E+1	0.00000000E+0	0.00000000E+0	1.34241000E-11	2.74520000E-12	5.80000000E+1	8.96097171E-5
1.56169600E+6	1.69998820E+1	0.00000000E+0	0.00000000E+0	1.40619000E-11	2.88920000E-12	4.30000000E+1	8.97592771E-5
1.56780300E+6	1.71000031E+1	0.00000000E+0	0.00000000E+0	1.47728000E-11	3.04050000E-12	5.30000000E+1	8.95706909E-5
1.57464100E+6	1.72001017E+1	0.00000000E+0	0.00000000E+0	1.55451000E-11	3.20140000E-12	6.00000000E+1	8.95601528E-5
1.58057200E+6	1.72999606E+1	0.00000000E+0	0.00000000E+0	1.63870000E-11	3.38720000E-12	6.20000000E+1	9.02075964E-5
1.58680500E+6	1.74000456E+1	0.00000000E+0	0.00000000E+0	1.73395000E-11	3.59050000E-12	6.10000000E+1	8.98725706E-5
1.59279100E+6	1.74999690E+1	0.00000000E+0	0.00000000E+0	1.83780000E-11	3.81600000E-12	7.70000000E+1	8.98807514E-5
1.59893800E+6	1.76001102E+1	0.00000000E+0	0.00000000E+0	1.96191000E-11	4.07710000E-12	8.00000000E+1	8.94951033E-5
1.60512600E+6	1.76999703E+1	0.00000000E+0	0.00000000E+0	2.10021000E-11	4.37990000E-12	1.03000000E+2	8.98721951E-5
1.61113100E+6	1.78000380E+1	0.00000000E+0	0.00000000E+0	2.25332000E-11	4.70970000E-12	1.04000000E+2	8.98601997E-5
1.61726000E+6	1.78999868E+1	0.00000000E+0	0.00000000E+0	2.43194000E-11	5.09670000E-12	9.60000000E+1	8.97656071E-5
1.62341500E+6	1.80000318E+1	0.00000000E+0	0.00000000E+0	2.63501000E-11	5.51620000E-12	1.14000000E+2	8.98105848E-5
1.62932900E+6	1.81000235E+1	0.00000000E+0	0.00000000E+0	2.85607000E-11	5.99090000E-12	1.07000000E+2	8.97091645E-5
1.63537600E+6	1.81999955E+1	0.00000000E+0	0.00000000E+0	3.12502000E-11	6.54490000E-12	1.33000000E+2	9.01405025E-5
1.64131700E+6	1.83000654E+1	0.00000000E+0	0.00000000E+0	3.38898000E-11	7.10930000E-12	1.27000000E+2	9.00854933E-5
1.64742400E+6	1.83999415E+1	0.00000000E+0	0.00000000E+0	3.69025000E-11	7.75380000E-12	1.56000000E+2	9.01803720E-5
1.65355000E+6	1.84999909E+1	0.00000000E+0	0.00000000E+0	4.01580000E-11	8.43110000E-12	1.67000000E+2	9.01244003E-5
1.65944900E+6	1.86000034E+1	0.00000000E+0	0.00000000E+0	4.33918000E-11	9.13380000E-12	1.83000000E+2	9.01459593E-5
1.66559300E+6	1.87000458E+1	0.00000000E+0	0.00000000E+0	4.69622000E-11	9.88900000E-12	1.80000000E+2	8.98569453E-5
1.67169700E+6	1.87999572E+1	0.00000000E+0	0.00000000E+0	5.05847000E-11	1.06784000E-11	1.93000000E+2	8.99113941E-5
1.67763000E+6	1.89000371E+1	0.00000000E+0	0.00000000E+0	5.43914000E-11	1.15030000E-11	2.06000000E+2	9.01342231E-5
1.68366000E+6	1.89998607E+1	0.00000000E+0	0.00000000E+0	5.83581000E-11	1.23799000E-11	2.09000000E+2	9.00071132E-5
1.68962400E+6	1.91001780E+1	0.00000000E+0	0.00000000E+0	6.24473000E-11	1.33180000E-11	2.17000000E+2	8.97096175E-5
1.69577900E+6	1.91999636E+1	0.00000000E+0	0.00000000E+0	6.70010000E-11	1.43413000E-11	2.37000000E+2	8.95534384E-5
1.70191000E+6	1.93000059E+1	0.00000000E+0	0.00000000E+0	7.18877000E-11	1.54496000E-11	2.76000000E+2	8.98339945E-5
1.70764400E+6	1.93998661E+1	0.00000000E+0	0.00000000E+0	7.71589000E-11	1.66303000E-11	2.81000000E+2	8.99535674E-5
1.71381600E+6	1.95001435E+1	0.00000000E+0	0.00000000E+0	8.28769000E-11	1.79358000E-11	2.88000000E+2	8.99507689E-5
1.72007900E+6	1.95999875E+1	0.00000000E+0	0.00000000E+0	8.90112000E-11	1.93312000E-11	2.83000000E+2	9.03665799E-5
1.72597400E+6	1.96999713E+1	0.00000000E+0	0.00000000E+0	9.53548000E-11	2.08046000E-11	3.37000000E+2	8.98508775E-5
1.73198900E+6	1.97999232E+1	0.00000000E+0	0.00000000E+0	1.01980800E-10	2.23355000E-11	3.74000000E+2	9.03333831E-5
1.73793100E+6	1.99000532E+1	0.00000000E+0	0.00000000E+0	1.08617700E-10	2.39028000E-11	3.77000000E+2	8.97335666E-5
1.74387500E+6	1.99999262E+1	0.00000000E+0	0.00000000E+0	1.15348000E-10	2.54747000E-11	4.05000000E+2	8.96306055E-5
1.74977200E+6	2.01001135E+1	0.00000000E+0	0.00000000E+0	1.21931200E-10	2.70538000E-11	4.26000000E+2	8.97241729E-5
1.75554800E+6	2.01999092E+1	0.00000000E+0	0.00000000E+0	1.28419000E-10	2.86006000E-11	4.22000000E+2	8.98691702E-5
1.76135500E+6	2.02999599E+1	0.00000000E+0	0.00000000E+0	1.34705200E-10	3.01423000E-11	4.39000000E+2	8.96229314E-5
1.76720300E+6	2.04000885E+1	0.00000000E+0	0.00000000E+0	1.40833000E-10	3.16643000E-11	4.49000000E+2	8.97514897E-5
1.77301100E+6	2.05000078E+1	0.00000000E+0	0.00000000E+0	1.46872900E-10	3.31575000E-11	4.99000000E+2	8.98949492E-5
1.77888200E+6	2.06000438E+1	0.00000000E+0	0.00000000E+0	1.52772500E-10	3.46339000E-11	5.13000000E+2	8.97318113E-5
1.78471100E+6	2.06998354E+1	0.00000000E+0	0.00000000E+0	1.58642000E-10	3.61168000E-11	4.79000000E+2	8.99520117E-5
1.79044300E+6	2.07999975E+1	0.00000000E+0	0.00000000E+0	1.64449900E-10	3.75755000E-11	5.16000000E+2	8.96196860E-5
1.79623200E+6	2.09001699E+1	0.00000000E+0	0.00000000E+0	1.70042900E-10	3.90066000E-11	5.27000000E+2	8.98363519E-5
1.80205300E+6	2.09999785E+1	0.00000000E+0	0.00000000E+0	1.75436600E-10	4.04378000E-11	5.49000000E+2	8.94777673E-5
1.80784400E+6	2.11000537E+1	0.00000000E+0	0.00000000E+0	1.80945400E-10	4.18403000E-11	5.50000000E+2	9.00253850E-5
1.81362100E+6	2.11999854E+1	0.00000000E+0	0.00000000E+0	1.86158200E-10	4.31932000E-11	5.38000000E+2	8.96391260E-5
1.81942000E+6	2.12999785E+1	0.00000000E+0	0.00000000E+0	1.91019500E-10	4.45215000E-11	5.50000000E+2	8.96185058E-5
1.82518700E+6	2.13999838E+1	0.00000000E+0	0.00000000E+0	1.95595300E-10	4.58064000E-11	5.91000000E+2	8.97568780E-5
1.83096900E+6	2.15000260E+1	0.00000000E+0	0.00000000E+0	2.00485300E-10	4.70680000E-11	5.55000000E+2	9.00797743E-5
1.83675400E+6	2.16000167E+1	0.00000000E+0	0.00000000E+0	2.05258400E-10	4.82931000E-11	5.33000000E+2	8.99750042E-5
1.84264400E+6	2.16999413E+1	0.00000000E+0	0.00000000E+0	9.90000000E+37	4.96141000E-11	5.61000000E+2	8.99735945E-5
1.84849700E+6	2.18000569E+1	0.00000000E+0	0.00000000E+0	9.90000000E+37	5.08529000E-11	5.55000000E+2	9.02088601E-5
1.85418700E+6	2.18999641E+1	0.00000000E+0	0.00000000E+0	9.90000000E+37	5.19667000E-11	5.85000000E+2	9.01227641E-5
1.86003700E+6	2.20000792E+1	0.00000000E+0	0.00000000E+0	9.90000000E+37	5.30199000E-11	5.51000000E+2	8.96524566E-5
1.86582700E+6	2.20999566E+1	0.00000000E+0	0.00000000E+0	9.90000000E+37	5.39832000E-11	5.37000000E+2	8.98034203E-5
1.87223100E+6	2.22000200E+1	0.00000000E+0	0.00000000E+0	9.90000000E+37	5.48881000E-11	5.44000000E+2	9.01567656E-5
1.87812200E+6	2.23000590E+1	0.00000000E+0	0.00000000E+0	9.90000000E+37	5.56530000E-11	5.12000000E+2	8.99397629E-5
1.88389200E+6	2.24000196E+1	0.00000000E+0	0.00000000E+0	9.90000000E+37	5.62990000E-11	5.41000000E+2	9.04573042E-5
1.88963900E+6	2.24999290E+1	0.00000000E+0	0.00000000E+0	9.90000000E+37	5.67807000E-11	5.33000000E+2	8.99302530E-5
1.89549800E+6	2.26000241E+1	0.00000000E+0	0.00000000E+0	9.90000000E+37	5.70947000E-11	5.32000000E+2	8.98806947E-5
1.90124900E+6	2.26999190E+1	0.00000000E+0	0.00000000E+0	9.90000000E+37	5.71605000E-11	4.89000000E+2	8.99927336E-5
1.90705900E+6	2.28000637E+1	0.00000000E+0	0.00000000E+0	9.90000000E+37	5.69797000E-11	4.85000000E+2	8.98288625E-5
1.91282500E+6	2.28999389E+1	0.00000000E+0	0.00000000E+0	9.90000000E+37	5.64654000E-11	4.90000000E+2	8.97539067E-5
1.91863300E+6	2.30000445E+1	0.00000000E+0	0.00000000E+0	9.90000000E+37	5.55139000E-11	5.06000000E+2	9.00841940E-5
1.92435900E+6	2.30999827E+1	0.00000000E+0	0.00000000E+0	9.90000000E+37	5.39700000E-11	4.67000000E+2	8.97789168E-5
1.93009500E+6	2.31999576E+1	0.00000000E+0	0.00000000E+0	9.90000000E+37	5.15018000E-11	4.03000000E+2	8.94955921E-5
1.93588200E+6	2.33000474E+1	0.00000000E+0	0.00000000E+0	2.03349300E-10	4.73874000E-11	3.64000000E+2	8.98959058E-5
1.94152100E+6	2.33998859E+1	0.00000000E+0	0.00000000E+0	1.71870500E-10	3.99103000E-11	3.25000000E+2	8.97329616E-5
1.94722800E+6	2.34998617E+1	0.00000000E+0	0.00000000E+0	1.14289000E-10	2.62189000E-11	2.15000000E+2	8.98170489E-5
1.95295300E+6	2.36001949E+1	0.00000000E+0	0.00000000E+0	5.69831000E-11	1.25089000E-11	1.21000000E+2	8.96247613E-5
1.95872600E+6	2.37001491E+1	0.00000000E+0	0.00000000E+0	3.53018000E-11	7.18730000E-12	6.50000000E+1	8.97377747E-5
1.96443500E+6	2.37999354E+1	0.00000000E+0	0.00000000E+0	2.98808000E-11	5.87970000E-12	5.90000000E+1	8.97041130E-5
1.97022600E+6	2.39000520E+1	0.00000000E+0	0.00000000E+0	2.86319000E-11	5.58200000E-12	5.30000000E+1	8.96385389E-5
1.97595200E+6	2.39998378E+1	0.00000000E+0	0.00000000E+0	2.83564000E-11	5.53820000E-12	5.50000000E+1	8.95990806E-5
1.98156900E+6	2.40998434E+1	0.00000000E+0	0.00000000E+0	2.82522000E-11	5.53530000E-12	4.40000000E+1	8.94516724E-5
1.98727000E+6	2.42002073E+1	0.00000000E+0	0.00000000E+0	2.81719000E-11	5.53410000E-12	4.70000000E+1	8.98730236E-5
1.99292900E+6	2.42997218E+1	0.00000000E+0	0.00000000E+0	2.79205000E-11	5.49200000E-12	4.00000000E+1	9.00462914E-5
1.99872400E+6	2.44000094E+1	0.00000000E+0	0.00000000E+0	2.72180000E-11	5.34580000E-12	4.40000000E+1	9.00120097E-5
2.00445900E+6	2.44998531E+1	0.00000000E+0	0.00000000E+0	2.51779000E-11	4.88940000E-12	4.20000000E+1	8.97538411E-5
2.01022000E+6	2.46001215E+1	0.00000000E+0	0.00000000E+0	2.07793000E-11	3.87890000E-12	3.60000000E+1	8.96969992E-5
2.01615600E+6	2.46998182E+1	0.00000000E+0	0.00000000E+0	1.69330000E-11	2.99830000E-12	2.20000000E+1	8.97590267E-5
2.02190000E+6	2.48003262E+1	0.00000000E+0	0.00000000E+0	1.54258000E-11	2.64740000E-12	2.10000000E+1	8.94174444E-5
2.02763700E+6	2.48999836E+1	0.00000000E+0	0.00000000E+0	1.48369000E-11	2.52880000E-12	2.50000000E+1	8.99177927E-5
2.03332500E+6	2.49999344E+1	0.00000000E+0	0.00000000E+0	1.44865000E-11	2.45410000E-12	2.10000000E+1	8.96718639E-5
