G:\BEAR_storage\User_Experiments\20220317_arneodo\file(1)_Region 1__0071.txt
Ring Energy (GeV): 2
Lifetime (hours): 0
Scan beginning: 3/21/2022	12:01:50 PM
Ring current (mA): 309.32
Source position: x (mm): 0.006 x' (mrad): 0 y (mm): -0 y' (mrad): 0.002
Scan end: 3/21/2022	12:04:41 PM
Ring current (mA): 308.36
Source position: x (mm): 0.006 x' (mrad): 0 y (mm): -0 y' (mrad): 0.002

SCAN TYPE: PHOTON ENERGY VS VAR_1 VS VAR_2

FILE INFO: FILE INFO:

SCAN PARAMETERS
waiting time (ms): 1000
Number of scans: 1
Current scan number: 1
DARK OFF 
PREDARK OFF 

SCAN PARAMETERS
Regions configuration: 
number of regions: 6
Mirror grating scan: on
Timed acquisition: off
Region 1:
Initial energy (eV): 40.000000
Final energy (eV): 72.000000
Delta energy (eV): 1.000000
Deviation angle choice: Higher order rejection
Deviation angle (°): NaN
Al filter
G1200 channel
range keithley B 20 nA
range keithley C 200 nA
range keithley A 20 nA
Var_1: PsiC 0.000000
Var_2: PhiM0.000000
Bias CEM (V): 0.000000
Bias Keithley B (V): -30.000000
Name region: 
Region 2:
Initial energy (eV): 70.000000
Final energy (eV): 102.000000
Delta energy (eV): 1.000000
Deviation angle choice: Higher order rejection
Deviation angle (°): NaN
Si filter
G1200 channel
range keithley B 20 nA
range keithley C 200 nA
range keithley A 20 nA
Var_1: PsiC 0.000000
Var_2: PhiM0.000000
Bias CEM (V): 0.000000
Bias Keithley B (V): -30.000000
Name region: 
Region 3:
Initial energy (eV): 98.000000
Final energy (eV): 260.000000
Delta energy (eV): 1.000000
Deviation angle choice: Higher order rejection
Deviation angle (°): NaN
Full Beam
G1200 channel
range keithley B 20 nA
range keithley C 200 nA
range keithley A 200 nA
Var_1: PsiC 0.000000
Var_2: PhiM0.000000
Bias CEM (V): 0.000000
Bias Keithley B (V): -30.000000
Name region: 
Region 4:
Initial energy (eV): 255.000000
Final energy (eV): 320.000000
Delta energy (eV): 1.000000
Deviation angle choice: Higher order rejection
Deviation angle (°): NaN
filter Ag 0.6 um
G1200 channel
range keithley B 200 pA
range keithley C 200 nA
range keithley A 200 pA
Var_1: PsiC 0.000000
Var_2: PhiM0.000000
Bias CEM (V): 0.000000
Bias Keithley B (V): -30.000000
Name region: 
Region 5:
Initial energy (eV): 315.000000
Final energy (eV): 1200.000000
Delta energy (eV): 5.000000
Deviation angle choice: Higher order rejection
Deviation angle (°): NaN
Full Beam
G1200 channel
range keithley B 20 nA
range keithley C 200 nA
range keithley A 20 nA
Var_1: PsiC 0.000000
Var_2: PhiM0.000000
Bias CEM (V): 0.000000
Bias Keithley B (V): -30.000000
Name region: 
Region 6:
Initial energy (eV): 1190.000000
Final energy (eV): 1500.000000
Delta energy (eV): 5.000000
Deviation angle choice: Higher order rejection
Deviation angle (°): NaN
filter Ag 0.6 um
G1200 channel
range keithley B 200 pA
range keithley C 200 nA
range keithley A 200 pA
Var_1: PsiC 0.000000
Var_2: PhiM0.000000
Bias CEM (V): 0.000000
Bias Keithley B (V): -30.000000
Name region: 

BEAR MONOCHROMATOR CONFIGURATION: 
Current Grating Position:     -151493.00
Current Mirror Position: 2556.9
Current Grating: G1200
P2 phiz position:  0.0000
Mono axis position: 25.0000
Current Photon Energy (eV): 119.998
Current Deviation Angle: 155.000
Vertical Exit Slits (um): 100.000
Exit slit y axis position: 1.3625
Horizontal Exit Slits (um):  889.156
Exit slit z axis position: 1.9229
Mitutoyo position (mm): 

Dose on sample (mJ/cm^2): NaN

ENERGY CALIBRATION:
offset grating G1200: yes
Delta 0 order G1200:  -1100.0
offset grating G1800: not
Delta 0 order G1800:  0.0
offset grating GNIM: not
Delta 0 order GNIM:  0.0
ZERO ORDER POSITIONS:
Grating G1200: Mirror position:  4938.0
Grating position: -105355.0
Grating G1800: 
Mirror position:  4938.0
Grating position: -106345.0
Grating GNIM: 
Mirror position:  10000.0
Grating position: 227300.0

Initial filter: Full Beam

EXPERIMENTAL CHAMBER CONFIGURATION: 
PsiC (deg):   -0.000186
Phi Analyzer (degrees): 89.992308
Theta Manipulator (degrees): -44.000040
Theta Analyzer (degrees): -135.001468
PhiM (degrees): -0.003077
XM (mm): -4.499188
YM (mm): 22.974263
ZM (mm): (Warning: for kinetic energy scans, 
this parameter is given in the scan settings) 
-14.001425
TiltM (°): 0.000138

ELECTRON ANALYZER CONFIGURATION: 
Current Kinetik energy (eV): 35.0
Mode: DE = COST
Pass Energy (eV):  100.000
CEM: ON
Bias Front-Back CEM (V): 3499.561
Bias Back-Collector CEM (V): 100.874
Bias Retard-Front CEM: 100.087COIL VALUES
Ix (amps):2.820
Iy (amps): 6.789
Iz (amps): 37.337

POLARIZATION SELECTOR CONFIGURATION:
Psi1 (rad): -0.001665535
Psi2 (rad): 0.001417093
Z min position (mm): 46.599650
DZ position (mm): 18.599100
Zmin 0 (mm): 66.500000
DZ0 (mm): 53.000000

BEAM SELECTOR CONFIGURATION:
Zmin position (mm): NaN
DZ position (mm): NaN
Y+ position (mm): NaN
Y- position (mm): NaN

CHANNEL ELECTRON MULTIPLIER CONFIGURATION:
CEM configured: OFF
Bias CEM: 0.000000

FLUORESCENCE DETECTOR CONFIGURATION:
Not configured

LUMINESCENCE MONOCHROMATOR CONFIGURATION:
Optical fiber position (mm): 0.000000
Optical fiber Switch inside: OFF
Optical fiber Switch outside: ON
Monochromator wavelength (A): 0.000000
Limit Switches: ON

I0 MONITOR PARAMETERS:
I0 detector position(mm): -1.924999E+2
Lower switch: OFF
Upper switch: OFF
Valve status:open

PRESSURE PARAMETERS:
Monitor chamber pressure (mbar): 9.44e-10
Experimental chamber pressure -ION GAUGE-(mbar): 0.000000E+0

XMCD PARAMETERS:
Xmcd OFF
Xmcd Direction -
Xmcd current (A): 0.000000

Gated scan off

Instrument 1: AMMETER KEITHLEY 6517A B
Measure type: Current
range type: set range value
range value (ampere):  20 nA
Integration time:  set NPLC value
NPLC value: 10.000
Digital filter count: 2
SAMPLE BIAS (V): -30.000
Vsource: ON
Output Voltage value: 30.000
Vsource range: 1000 V

Instrument 2: AMMETER KEITHLEY 6517A A
Measure type: Current
range type: set range value
range value (ampere):  200 nA
Integration time:  set NPLC value
NPLC value: 10.000
Digital filter count: 2
Vsource: OFF
Output Voltage value: -0.000
Vsource range: 100 V
Trigger source: bus

Range Keithley A changed to 20 nA

Range Keithley A changed to 200 nA

Range Keithley A changed to 200 pA

Range Keithley A changed to 20 nA

Range Keithley A changed to 200 pA

Range Keithley A changed to 20 nA

Range Keithley A changed to 200 nA

Range Keithley A changed to 200 pA

Range Keithley A changed to 20 nA

Range Keithley A changed to 200 pA

Range Keithley A changed to 20 nA

Range Keithley A changed to 200 nA

Range Keithley A changed to 200 pA

Range Keithley A changed to 20 nA

Range Keithley A changed to 200 pA

Range Keithley A changed to 20 nA

Range Keithley A changed to 200 pA

Range Keithley A changed to 20 nA

Range Keithley A changed to 200 pA

Range Keithley A changed to 20 nA

Range Keithley A changed to 200 pA

Range Keithley A changed to 20 nA

Range Keithley A changed to 200 nA

Range Keithley A changed to 200 pA

Range Keithley A changed to 20 nA

Range Keithley A changed to 200 pA

Range Keithley A changed to 20 nA

Range Keithley A changed to 200 nA

Range Keithley A changed to 200 pA

Range Keithley A changed to 20 nA

Range Keithley A changed to 200 nA

Range Keithley A changed to 200 pA

Range Keithley A changed to 20 nA

Range Keithley A changed to 200 pA

Range Keithley A changed to 20 nA

Range Keithley A changed to 200 pA

Range Keithley A changed to 20 nA

Range Keithley A changed to 200 nA

Range Keithley A changed to 200 pA

Range Keithley A changed to 20 nA

Range Keithley A changed to 200 pA

Range Keithley A changed to 20 nA

Range Keithley A changed to 200 nA

Range Keithley A changed to 20 nA

Range Keithley A changed to 200 nA

Range Keithley A changed to 200 pA

Range Keithley A changed to 20 nA

Range Keithley A changed to 200 nA

Range Keithley A changed to 2 uA

Range Keithley A changed to 20 nA

Range Keithley A changed to 200 nA

Range Keithley A changed to 2 uA

Range Keithley A changed to 20 nA

Range Keithley A changed to 200 nA

Range Keithley A changed to 200 pA

Range Keithley A changed to 2 uA

Range Keithley A changed to 20 nA

Range Keithley A changed to 200 nA

Range Keithley A changed to 200 pA

Range Keithley A changed to 20 nA

Range Keithley A changed to 2 uA

Range Keithley A changed to 20 nA

Range Keithley A changed to 200 nA

Range Keithley A changed to 20 nA

Range Keithley A changed to 200 nA

Range Keithley A changed to 200 pA

Range Keithley A changed to 2 uA

Range Keithley A changed to 20 nA

Range Keithley A changed to 200 nA

Range Keithley A changed to 20 nA

Range Keithley A changed to 200 nA

Range Keithley A changed to 200 pA

Range Keithley A changed to 20 nA

Range Keithley A changed to 200 nA

Range Keithley A changed to 20 nA

Range Keithley A changed to 200 nA

Range Keithley A changed to 200 pA

Range Keithley A changed to 20 nA

Range Keithley A changed to 200 nA

Range Keithley A changed to 200 pA

Range Keithley A changed to 20 nA

Range Keithley A changed to 200 pA

Range Keithley A changed to 20 nA

Range Keithley A changed to 200 pA

Range Keithley A changed to 20 nA

Range Keithley A changed to 200 pA

Range Keithley A changed to 20 nA

Range Keithley A changed to 200 pA

Range Keithley A changed to 20 nA

Range Keithley A changed to 200 nA

Range Keithley A changed to 2 uA

Range Keithley A changed to 20 uA

Range Keithley A changed to 200 uA

Range Keithley A changed to 20 nA

Range Keithley A changed to 200 nA

Range Keithley A changed to 200 pA

Range Keithley A changed to 20 nA

Range Keithley A changed to 200 pA

Range Keithley A changed to 20 nA

Instrument 3: COUNTER ORTEC 996Integration time (sec): 1.000


Range Keithley C changed to 200 nA


________________________________________________________________________________

RelativeTime (msec)	Photon Energy	Var_1	Var_2	INSTR_1_Sample with Bias _(ampere ) 	INSTR_2_Monitor IM_(ampere)  	INSTR_3_Ortec 996 counts_(counts)	I_BPM_sum (Amps)	
________________________________________________________________________________

5.87400000E+3	3.99998128E+1	0.00000000E+0	0.00000000E+0	1.84170000E-10	3.94100000E-11	6.53000000E+2	8.91166942E-5
1.24410000E+4	4.09996846E+1	0.00000000E+0	0.00000000E+0	1.98480000E-10	4.87100000E-11	6.46000000E+2	8.90124338E-5
1.75100000E+4	4.20000262E+1	0.00000000E+0	0.00000000E+0	2.15860000E-10	5.48100000E-11	6.86000000E+2	8.96151888E-5
2.25750000E+4	4.30000611E+1	0.00000000E+0	0.00000000E+0	2.33710000E-10	6.12300000E-11	7.79000000E+2	8.91776489E-5
2.76540000E+4	4.39999194E+1	0.00000000E+0	0.00000000E+0	2.51740000E-10	6.78400000E-11	7.86000000E+2	8.92109739E-5
3.26610000E+4	4.49997546E+1	0.00000000E+0	0.00000000E+0	2.71040000E-10	7.46300000E-11	8.72000000E+2	8.89388339E-5
3.75750000E+4	4.60002152E+1	0.00000000E+0	0.00000000E+0	2.95210000E-10	8.26700000E-11	8.55000000E+2	8.93030839E-5
4.25120000E+4	4.69999866E+1	0.00000000E+0	0.00000000E+0	3.20880000E-10	9.16000000E-11	9.73000000E+2	8.90992688E-5
4.74360000E+4	4.80000110E+1	0.00000000E+0	0.00000000E+0	3.40560000E-10	9.90900000E-11	9.69000000E+2	8.91319918E-5
5.22610000E+4	4.89996657E+1	0.00000000E+0	0.00000000E+0	3.47100000E-10	1.02890000E-10	1.03100000E+3	8.89812099E-5
5.71220000E+4	5.00002798E+1	0.00000000E+0	0.00000000E+0	3.33090000E-10	1.00650000E-10	9.94000000E+2	8.91949015E-5
6.19770000E+4	5.09999851E+1	0.00000000E+0	0.00000000E+0	3.09380000E-10	9.48400000E-11	9.19000000E+2	8.88969051E-5
6.67910000E+4	5.19999552E+1	0.00000000E+0	0.00000000E+0	3.14270000E-10	9.68400000E-11	9.46000000E+2	8.89636146E-5
7.15750000E+4	5.30000391E+1	0.00000000E+0	0.00000000E+0	3.60840000E-10	1.11040000E-10	1.08900000E+3	8.91981410E-5
7.62700000E+4	5.39999559E+1	0.00000000E+0	0.00000000E+0	4.23600000E-10	1.30250000E-10	1.25600000E+3	8.90457796E-5
8.09840000E+4	5.49999130E+1	0.00000000E+0	0.00000000E+0	4.87940000E-10	1.50130000E-10	1.38200000E+3	8.91880976E-5
8.56960000E+4	5.60000054E+1	0.00000000E+0	0.00000000E+0	5.52900000E-10	1.70540000E-10	1.54800000E+3	8.89866250E-5
9.03800000E+4	5.69999843E+1	0.00000000E+0	0.00000000E+0	6.20830000E-10	1.92140000E-10	1.65400000E+3	8.89012234E-5
9.50590000E+4	5.79999762E+1	0.00000000E+0	0.00000000E+0	6.93330000E-10	2.15480000E-10	1.94500000E+3	8.90292453E-5
9.96280000E+4	5.89997853E+1	0.00000000E+0	0.00000000E+0	7.74800000E-10	2.41790000E-10	2.16400000E+3	8.86325435E-5
1.04220000E+5	6.00001720E+1	0.00000000E+0	0.00000000E+0	8.64410000E-10	2.70770000E-10	2.40400000E+3	8.88690846E-5
1.08752000E+5	6.10000729E+1	0.00000000E+0	0.00000000E+0	9.53740000E-10	3.00450000E-10	2.46900000E+3	8.90713768E-5
1.13302000E+5	6.19999118E+1	0.00000000E+0	0.00000000E+0	1.04190000E-9	3.30100000E-10	2.71100000E+3	8.93158602E-5
1.17829000E+5	6.29998944E+1	0.00000000E+0	0.00000000E+0	1.12382000E-9	3.58280000E-10	2.94100000E+3	8.90456157E-5
1.22366000E+5	6.40000540E+1	0.00000000E+0	0.00000000E+0	1.19403000E-9	3.83160000E-10	3.07500000E+3	8.89183121E-5
1.26823000E+5	6.49996302E+1	0.00000000E+0	0.00000000E+0	1.25037000E-9	4.03530000E-10	3.11100000E+3	8.90624063E-5
1.31212000E+5	6.60003004E+1	0.00000000E+0	0.00000000E+0	1.28868000E-9	4.18380000E-10	3.49500000E+3	8.93092232E-5
1.35635000E+5	6.69999268E+1	0.00000000E+0	0.00000000E+0	1.31556000E-9	4.29110000E-10	3.45700000E+3	8.88777302E-5
1.40041000E+5	6.80000684E+1	0.00000000E+0	0.00000000E+0	1.35216000E-9	4.42730000E-10	3.52300000E+3	8.89012949E-5
1.44471000E+5	6.89998897E+1	0.00000000E+0	0.00000000E+0	1.41967000E-9	4.66070000E-10	3.56200000E+3	8.89709370E-5
1.48909000E+5	6.99998166E+1	0.00000000E+0	0.00000000E+0	1.51402000E-9	4.98080000E-10	3.84900000E+3	8.90197353E-5
1.53305000E+5	7.10002325E+1	0.00000000E+0	0.00000000E+0	1.58339000E-9	5.23870000E-10	4.09700000E+3	8.90882479E-5
1.57606000E+5	7.19997153E+1	0.00000000E+0	0.00000000E+0	1.31662000E-9	4.36750000E-10	3.38500000E+3	8.89154659E-5
