G:\BEAR_storage\User_Experiments\20220317_arneodo\file(1)_Region 3__0073.txt
Ring Energy (GeV): 2
Lifetime (hours): 15.2392
Scan beginning: 3/21/2022	1:51:28 PM
Ring current (mA): 308.78
Source position: x (mm): 0.006 x' (mrad): 0 y (mm): 0.002 y' (mrad): 0.002
Scan end: 3/21/2022	2:08:25 PM
Ring current (mA): 309.47
Source position: x (mm): 0.006 x' (mrad): -0 y (mm): 0.002 y' (mrad): 0.002

SCAN TYPE: PHOTON ENERGY VS VAR_1 VS VAR_2

FILE INFO: FILE INFO:

SCAN PARAMETERS
waiting time (ms): 0
Number of scans: 1
Current scan number: 1
DARK OFF 
PREDARK OFF 

SCAN PARAMETERS
Regions configuration: 
number of regions: 6
Mirror grating scan: on
Timed acquisition: off
Region 1:
Initial energy (eV): 40.000000
Final energy (eV): 72.000000
Delta energy (eV): 1.000000
Deviation angle choice: Higher order rejection
Deviation angle (°): NaN
Al filter
G1200 channel
range keithley B 20 nA
range keithley C 200 nA
range keithley A 20 nA
Var_1: PsiC 0.000000
Var_2: PhiM0.000000
Bias CEM (V): 0.000000
Bias Keithley B (V): -30.000000
Name region: 
Region 2:
Initial energy (eV): 70.000000
Final energy (eV): 102.000000
Delta energy (eV): 1.000000
Deviation angle choice: Higher order rejection
Deviation angle (°): NaN
Si filter
G1200 channel
range keithley B 20 nA
range keithley C 200 nA
range keithley A 20 nA
Var_1: PsiC 0.000000
Var_2: PhiM0.000000
Bias CEM (V): 0.000000
Bias Keithley B (V): -30.000000
Name region: 
Region 3:
Initial energy (eV): 98.000000
Final energy (eV): 260.000000
Delta energy (eV): 1.000000
Deviation angle choice: Higher order rejection
Deviation angle (°): NaN
Full Beam
G1200 channel
range keithley B 20 nA
range keithley C 200 nA
range keithley A 200 nA
Var_1: PsiC 0.000000
Var_2: PhiM0.000000
Bias CEM (V): 0.000000
Bias Keithley B (V): -30.000000
Name region: 
Region 4:
Initial energy (eV): 255.000000
Final energy (eV): 320.000000
Delta energy (eV): 1.000000
Deviation angle choice: Higher order rejection
Deviation angle (°): NaN
filter Ag 0.6 um
G1200 channel
range keithley B 200 pA
range keithley C 200 nA
range keithley A 200 pA
Var_1: PsiC 0.000000
Var_2: PhiM0.000000
Bias CEM (V): 0.000000
Bias Keithley B (V): -30.000000
Name region: 
Region 5:
Initial energy (eV): 315.000000
Final energy (eV): 1200.000000
Delta energy (eV): 5.000000
Deviation angle choice: Higher order rejection
Deviation angle (°): NaN
Full Beam
G1200 channel
range keithley B 20 nA
range keithley C 200 nA
range keithley A 20 nA
Var_1: PsiC 0.000000
Var_2: PhiM0.000000
Bias CEM (V): 0.000000
Bias Keithley B (V): -30.000000
Name region: 
Region 6:
Initial energy (eV): 1190.000000
Final energy (eV): 1500.000000
Delta energy (eV): 5.000000
Deviation angle choice: Higher order rejection
Deviation angle (°): NaN
filter Ag 0.6 um
G1200 channel
range keithley B 200 pA
range keithley C 200 nA
range keithley A 200 pA
Var_1: PsiC 0.000000
Var_2: PhiM0.000000
Bias CEM (V): 0.000000
Bias Keithley B (V): -30.000000
Name region: 

BEAR MONOCHROMATOR CONFIGURATION: 
Current Grating Position:     -236071.60
Current Mirror Position: 2557.0
Current Grating: G1200
P2 phiz position:  0.0000
Mono axis position: 25.0000
Current Photon Energy (eV): 40.000
Current Deviation Angle: 155.000
Vertical Exit Slits (um): 100.000
Exit slit y axis position: 1.3625
Horizontal Exit Slits (um):  889.156
Exit slit z axis position: 1.9229
Mitutoyo position (mm): 

Dose on sample (mJ/cm^2): NaN

ENERGY CALIBRATION:
offset grating G1200: not
Delta 0 order G1200:  0.0
offset grating G1800: not
Delta 0 order G1800:  0.0
offset grating GNIM: not
Delta 0 order GNIM:  0.0
ZERO ORDER POSITIONS:
Grating G1200: Mirror position:  4938.0
Grating position: -105355.0
Grating G1800: 
Mirror position:  4938.0
Grating position: -106345.0
Grating GNIM: 
Mirror position:  10000.0
Grating position: 227300.0

Initial filter: Full Beam

EXPERIMENTAL CHAMBER CONFIGURATION: 
PsiC (deg):   -0.000186
Phi Analyzer (degrees): 89.992308
Theta Manipulator (degrees): -44.000040
Theta Analyzer (degrees): -135.001468
PhiM (degrees): -0.003077
XM (mm): -4.499238
YM (mm): 25.962825
ZM (mm): (Warning: for kinetic energy scans, 
this parameter is given in the scan settings) 
-14.001438
TiltM (°): 0.000138

ELECTRON ANALYZER CONFIGURATION: 
Current Kinetik energy (eV): 35.0
Mode: DE = COST
Pass Energy (eV):  100.000
CEM: ON
Bias Front-Back CEM (V): 3499.698
Bias Back-Collector CEM (V): 100.874
Bias Retard-Front CEM: 100.104COIL VALUES
Ix (amps):2.820
Iy (amps): 6.789
Iz (amps): 37.403

POLARIZATION SELECTOR CONFIGURATION:
Psi1 (rad): -0.001665535
Psi2 (rad): 0.001417093
Z min position (mm): 46.599650
DZ position (mm): 18.599100
Zmin 0 (mm): 65.700000
DZ0 (mm): 54.000000

BEAM SELECTOR CONFIGURATION:
Zmin position (mm): NaN
DZ position (mm): NaN
Y+ position (mm): NaN
Y- position (mm): NaN

CHANNEL ELECTRON MULTIPLIER CONFIGURATION:
CEM configured: OFF
Bias CEM: 0.000000

FLUORESCENCE DETECTOR CONFIGURATION:
Not configured

LUMINESCENCE MONOCHROMATOR CONFIGURATION:
Optical fiber position (mm): 0.000000
Optical fiber Switch inside: ON
Optical fiber Switch outside: ON
Monochromator wavelength (A): 0.000000
Limit Switches: ON

I0 MONITOR PARAMETERS:
I0 detector position(mm): NaN
Lower switch: OFF
Upper switch: OFF
Valve status:unread

PRESSURE PARAMETERS:
Monitor chamber pressure (mbar): 9.255e-10
Experimental chamber pressure -ION GAUGE-(mbar): 0.000000E+0

XMCD PARAMETERS:
Xmcd OFF
Xmcd Direction -
Xmcd current (A): 0.000000

Gated scan off

Instrument 1: AMMETER KEITHLEY 6517A B
Measure type: Current
range type: set range value
range value (ampere):  200 pA
Integration time:  set NPLC value
NPLC value: 10.000
Digital filter count: 2
SAMPLE BIAS (V): -30.000
Vsource: ON
Output Voltage value: 30.000
Vsource range: 1000 V

Range Keithley B changed to 20 nA

Range Keithley B changed to 200 pA

Instrument 2: AMMETER KEITHLEY 6517A A
Measure type: Current
range type: set range value
range value (ampere):  200 pA
Integration time:  set NPLC value
NPLC value: 10.000
Digital filter count: 2
Vsource: OFF
Output Voltage value: -0.000
Vsource range: 100 V
Trigger source: bus

Range Keithley A changed to 20 nA

Range Keithley A changed to 200 nA

Range Keithley A changed to 200 pA

Instrument 3: COUNTER ORTEC 996Integration time (sec): 1.000


Range Keithley C changed to 200 nA


________________________________________________________________________________

RelativeTime (msec)	Photon Energy	Var_1	Var_2	INSTR_1_Sample with Bias _(ampere ) 	INSTR_2_Monitor IM_(ampere)  	INSTR_3_Ortec 996 counts_(counts)	I_BPM_sum (Amps)	
________________________________________________________________________________

3.18352000E+5	9.80014277E+1	0.00000000E+0	0.00000000E+0	3.30667000E-9	4.62500000E-9	6.42600000E+3	8.91649144E-5
3.23206000E+5	9.89982471E+1	0.00000000E+0	0.00000000E+0	3.37620000E-9	4.81620000E-9	6.48900000E+3	8.93362301E-5
3.27302000E+5	1.00000378E+2	0.00000000E+0	0.00000000E+0	3.42014000E-9	4.97750000E-9	6.58400000E+3	8.91087251E-5
3.31372000E+5	1.01000083E+2	0.00000000E+0	0.00000000E+0	3.45015000E-9	5.12440000E-9	6.75700000E+3	8.92191665E-5
3.35479000E+5	1.02000088E+2	0.00000000E+0	0.00000000E+0	3.49383000E-9	5.29520000E-9	6.88200000E+3	8.95368266E-5
3.39566000E+5	1.03000229E+2	0.00000000E+0	0.00000000E+0	3.55804000E-9	5.50370000E-9	6.83300000E+3	8.93169957E-5
3.43671000E+5	1.03999714E+2	0.00000000E+0	0.00000000E+0	3.62189000E-9	5.71840000E-9	7.10100000E+3	8.91812371E-5
3.47720000E+5	1.05000315E+2	0.00000000E+0	0.00000000E+0	3.68781000E-9	5.93960000E-9	7.11300000E+3	8.95331728E-5
3.51746000E+5	1.06000206E+2	0.00000000E+0	0.00000000E+0	3.79686000E-9	6.18690000E-9	7.26700000E+3	8.92192679E-5
3.55794000E+5	1.06999917E+2	0.00000000E+0	0.00000000E+0	3.97520000E-9	6.47110000E-9	7.61500000E+3	8.94551831E-5
3.59698000E+5	1.07999355E+2	0.00000000E+0	0.00000000E+0	4.10464000E-9	6.75730000E-9	8.08400000E+3	8.91403811E-5
3.63693000E+5	1.09000294E+2	0.00000000E+0	0.00000000E+0	4.20922000E-9	7.00730000E-9	8.29400000E+3	8.92139750E-5
3.67690000E+5	1.10000202E+2	0.00000000E+0	0.00000000E+0	4.27131000E-9	7.28370000E-9	8.26700000E+3	8.93082666E-5
3.71722000E+5	1.11000152E+2	0.00000000E+0	0.00000000E+0	4.29681000E-9	7.50810000E-9	8.23000000E+3	8.90809702E-5
3.75639000E+5	1.11999165E+2	0.00000000E+0	0.00000000E+0	4.32636000E-9	7.72910000E-9	8.27400000E+3	8.90676187E-5
3.79549000E+5	1.13000972E+2	0.00000000E+0	0.00000000E+0	4.36749000E-9	7.95620000E-9	8.77100000E+3	8.94860494E-5
3.83421000E+5	1.13999348E+2	0.00000000E+0	0.00000000E+0	4.40888000E-9	8.17010000E-9	8.64800000E+3	8.90180336E-5
3.87363000E+5	1.15000927E+2	0.00000000E+0	0.00000000E+0	4.44604000E-9	8.36940000E-9	8.75200000E+3	8.91147809E-5
3.91286000E+5	1.16000370E+2	0.00000000E+0	0.00000000E+0	4.47112000E-9	8.55880000E-9	8.87500000E+3	8.92743813E-5
3.95246000E+5	1.17000072E+2	0.00000000E+0	0.00000000E+0	4.47693000E-9	8.72990000E-9	8.70200000E+3	8.91824352E-5
3.99159000E+5	1.18000415E+2	0.00000000E+0	0.00000000E+0	4.45516000E-9	8.86060000E-9	8.52500000E+3	8.92219650E-5
4.03106000E+5	1.18999870E+2	0.00000000E+0	0.00000000E+0	4.41775000E-9	8.94410000E-9	8.67600000E+3	8.89718579E-5
4.07094000E+5	1.19999940E+2	0.00000000E+0	0.00000000E+0	4.36834000E-9	8.99000000E-9	8.53500000E+3	8.91500520E-5
4.10993000E+5	1.20999938E+2	0.00000000E+0	0.00000000E+0	4.31548000E-9	9.01440000E-9	8.31100000E+3	8.90267687E-5
4.14924000E+5	1.22000022E+2	0.00000000E+0	0.00000000E+0	4.26216000E-9	9.02570000E-9	8.25500000E+3	8.91765701E-5
4.18826000E+5	1.23000376E+2	0.00000000E+0	0.00000000E+0	4.20696000E-9	9.01820000E-9	8.38700000E+3	8.91014414E-5
4.22749000E+5	1.23999392E+2	0.00000000E+0	0.00000000E+0	4.14603000E-9	8.99050000E-9	8.18100000E+3	8.91151922E-5
4.26624000E+5	1.25000297E+2	0.00000000E+0	0.00000000E+0	4.08157000E-9	8.94610000E-9	8.09100000E+3	8.90321271E-5
4.30555000E+5	1.25999343E+2	0.00000000E+0	0.00000000E+0	4.01107000E-9	8.88560000E-9	8.06900000E+3	8.92247396E-5
4.34446000E+5	1.27000184E+2	0.00000000E+0	0.00000000E+0	3.93001000E-9	8.80380000E-9	7.75600000E+3	8.90053349E-5
4.38363000E+5	1.27999616E+2	0.00000000E+0	0.00000000E+0	3.83736000E-9	8.69940000E-9	7.66100000E+3	8.89641361E-5
4.42163000E+5	1.29000473E+2	0.00000000E+0	0.00000000E+0	3.73636000E-9	8.57530000E-9	7.54200000E+3	8.91566919E-5
4.45944000E+5	1.29998453E+2	0.00000000E+0	0.00000000E+0	3.62866000E-9	8.43390000E-9	7.16300000E+3	8.91283022E-5
4.49826000E+5	1.31001849E+2	0.00000000E+0	0.00000000E+0	3.51330000E-9	8.27330000E-9	6.91800000E+3	8.91888963E-5
4.53596000E+5	1.31999564E+2	0.00000000E+0	0.00000000E+0	3.39025000E-9	8.09100000E-9	6.81500000E+3	8.91546266E-5
4.58153000E+5	1.33000044E+2	0.00000000E+0	0.00000000E+0	3.25838000E-9	7.88540000E-9	6.58000000E+3	8.90862273E-5
4.61935000E+5	1.33999881E+2	0.00000000E+0	0.00000000E+0	3.12069000E-9	7.66000000E-9	6.09900000E+3	8.89004992E-5
4.65695000E+5	1.35000497E+2	0.00000000E+0	0.00000000E+0	2.97882000E-9	7.41760000E-9	5.92900000E+3	8.89321672E-5
4.69465000E+5	1.36000496E+2	0.00000000E+0	0.00000000E+0	2.83726000E-9	7.16620000E-9	5.60600000E+3	8.89940845E-5
4.73239000E+5	1.36999885E+2	0.00000000E+0	0.00000000E+0	2.69432000E-9	6.90510000E-9	5.37100000E+3	8.90933113E-5
4.77027000E+5	1.37999808E+2	0.00000000E+0	0.00000000E+0	2.55332000E-9	6.63810000E-9	5.02800000E+3	8.90074210E-5
4.80832000E+5	1.39000727E+2	0.00000000E+0	0.00000000E+0	2.41188000E-9	6.35960000E-9	4.81200000E+3	8.90224056E-5
4.84640000E+5	1.39999663E+2	0.00000000E+0	0.00000000E+0	2.26679000E-9	6.06390000E-9	4.53800000E+3	8.89604943E-5
4.88392000E+5	1.40999738E+2	0.00000000E+0	0.00000000E+0	2.12043000E-9	5.74980000E-9	4.22300000E+3	8.88231205E-5
4.92142000E+5	1.41999913E+2	0.00000000E+0	0.00000000E+0	1.97025000E-9	5.41530000E-9	3.93300000E+3	8.87728260E-5
4.95898000E+5	1.42999037E+2	0.00000000E+0	0.00000000E+0	1.81824000E-9	5.06630000E-9	3.71700000E+3	8.90967147E-5
4.99653000E+5	1.44000075E+2	0.00000000E+0	0.00000000E+0	1.66532000E-9	4.70790000E-9	3.39100000E+3	8.90950160E-5
5.03428000E+5	1.45001139E+2	0.00000000E+0	0.00000000E+0	1.51577000E-9	4.34630000E-9	3.07400000E+3	8.89386194E-5
5.07179000E+5	1.46000675E+2	0.00000000E+0	0.00000000E+0	1.37026000E-9	3.98750000E-9	2.74900000E+3	8.89862167E-5
5.10927000E+5	1.46999182E+2	0.00000000E+0	0.00000000E+0	1.23487000E-9	3.64400000E-9	2.46400000E+3	8.87342112E-5
5.14696000E+5	1.48000650E+2	0.00000000E+0	0.00000000E+0	1.10833000E-9	3.31770000E-9	2.27200000E+3	8.90658783E-5
5.18478000E+5	1.48999668E+2	0.00000000E+0	0.00000000E+0	9.94570000E-10	3.01510000E-9	2.05100000E+3	8.89350490E-5
5.22257000E+5	1.49998963E+2	0.00000000E+0	0.00000000E+0	8.91750000E-10	2.73760000E-9	1.79300000E+3	8.90053259E-5
5.26689000E+5	1.50971676E+2	0.00000000E+0	0.00000000E+0	7.85800000E-10	2.45260000E-9	1.61700000E+3	8.91222017E-5
5.31149000E+5	1.52023199E+2	0.00000000E+0	0.00000000E+0	7.21930000E-10	2.28070000E-9	1.48900000E+3	8.88512837E-5
5.35623000E+5	1.53003418E+2	0.00000000E+0	0.00000000E+0	6.60810000E-10	2.11460000E-9	1.44300000E+3	8.90077906E-5
5.40077000E+5	1.54001796E+2	0.00000000E+0	0.00000000E+0	6.02510000E-10	1.95380000E-9	1.20700000E+3	8.88596462E-5
5.44607000E+5	1.55002266E+2	0.00000000E+0	0.00000000E+0	5.47050000E-10	1.79940000E-9	1.13300000E+3	8.92665940E-5
5.49043000E+5	1.56000208E+2	0.00000000E+0	0.00000000E+0	4.99700000E-10	1.66610000E-9	1.02900000E+3	8.94184309E-5
5.53535000E+5	1.56997023E+2	0.00000000E+0	0.00000000E+0	4.59510000E-10	1.55040000E-9	9.43000000E+2	8.92782109E-5
5.57996000E+5	1.57997621E+2	0.00000000E+0	0.00000000E+0	4.24100000E-10	1.44670000E-9	8.13000000E+2	8.93677550E-5
5.62433000E+5	1.58999001E+2	0.00000000E+0	0.00000000E+0	3.93940000E-10	1.35270000E-9	8.32000000E+2	8.91428249E-5
5.66896000E+5	1.59993575E+2	0.00000000E+0	0.00000000E+0	3.66580000E-10	1.27030000E-9	8.11000000E+2	8.91827451E-5
5.71320000E+5	1.60994996E+2	0.00000000E+0	0.00000000E+0	3.43910000E-10	1.20580000E-9	7.77000000E+2	8.93018531E-5
5.75765000E+5	1.62003280E+2	0.00000000E+0	0.00000000E+0	3.23090000E-10	1.14580000E-9	6.50000000E+2	8.94788521E-5
5.80173000E+5	1.63004920E+2	0.00000000E+0	0.00000000E+0	2.99590000E-10	1.07430000E-9	6.09000000E+2	8.93741088E-5
5.84606000E+5	1.64002457E+2	0.00000000E+0	0.00000000E+0	2.73960000E-10	9.95300000E-10	5.96000000E+2	8.90667306E-5
5.88983000E+5	1.65006368E+2	0.00000000E+0	0.00000000E+0	2.46780000E-10	9.11000000E-10	5.13000000E+2	8.91918646E-5
5.93399000E+5	1.66001269E+2	0.00000000E+0	0.00000000E+0	2.22740000E-10	8.31700000E-10	4.58000000E+2	8.92189341E-5
5.97814000E+5	1.66998639E+2	0.00000000E+0	0.00000000E+0	2.01230000E-10	7.61600000E-10	4.22000000E+2	8.90905874E-5
6.02226000E+5	1.67998979E+2	0.00000000E+0	0.00000000E+0	1.83020000E-10	7.03400000E-10	4.11000000E+2	8.93605309E-5
6.06652000E+5	1.68998481E+2	0.00000000E+0	0.00000000E+0	1.68110000E-10	6.54100000E-10	3.29000000E+2	8.90373515E-5
6.11084000E+5	1.69997087E+2	0.00000000E+0	0.00000000E+0	1.55320000E-10	6.12000000E-10	3.21000000E+2	8.93375563E-5
6.15519000E+5	1.70993496E+2	0.00000000E+0	0.00000000E+0	1.45740000E-10	5.80000000E-10	3.11000000E+2	8.93659281E-5
6.19947000E+5	1.71995238E+2	0.00000000E+0	0.00000000E+0	1.38970000E-10	5.57200000E-10	3.08000000E+2	8.91264813E-5
6.24413000E+5	1.73008898E+2	0.00000000E+0	0.00000000E+0	1.31540000E-10	5.31900000E-10	2.82000000E+2	8.92775553E-5
6.28859000E+5	1.74003428E+2	0.00000000E+0	0.00000000E+0	1.23290000E-10	5.03600000E-10	2.60000000E+2	8.91273843E-5
6.33300000E+5	1.75001688E+2	0.00000000E+0	0.00000000E+0	1.14740000E-10	4.73800000E-10	2.42000000E+2	8.93026041E-5
6.37720000E+5	1.76002811E+2	0.00000000E+0	0.00000000E+0	1.07290000E-10	4.44400000E-10	2.08000000E+2	8.91155409E-5
6.42183000E+5	1.77001773E+2	0.00000000E+0	0.00000000E+0	1.00910000E-10	4.18300000E-10	1.90000000E+2	8.89414595E-5
6.46668000E+5	1.77995602E+2	0.00000000E+0	0.00000000E+0	9.46600000E-11	3.98300000E-10	2.22000000E+2	8.92732876E-5
6.51115000E+5	1.78998043E+2	0.00000000E+0	0.00000000E+0	8.89600000E-11	3.82700000E-10	1.92000000E+2	8.92304676E-5
6.55594000E+5	1.79998092E+2	0.00000000E+0	0.00000000E+0	8.41800000E-11	3.69700000E-10	1.86000000E+2	8.90354173E-5
6.60054000E+5	1.80993445E+2	0.00000000E+0	0.00000000E+0	8.11800000E-11	3.60300000E-10	1.79000000E+2	8.90893417E-5
6.64498000E+5	1.81992505E+2	0.00000000E+0	0.00000000E+0	7.93900000E-11	3.54700000E-10	1.55000000E+2	8.92913627E-5
6.69718000E+5	1.83003902E+2	0.00000000E+0	0.00000000E+0	7.74200000E-11	3.49900000E-10	1.86000000E+2	8.90131907E-5
6.74136000E+5	1.84008185E+2	0.00000000E+0	0.00000000E+0	7.57400000E-11	3.43200000E-10	1.77000000E+2	8.90515732E-5
6.78590000E+5	1.85001312E+2	0.00000000E+0	0.00000000E+0	7.40300000E-11	3.36000000E-10	1.54000000E+2	8.89719771E-5
6.83037000E+5	1.86005415E+2	0.00000000E+0	0.00000000E+0	7.20100000E-11	3.28200000E-10	1.41000000E+2	8.89575140E-5
6.87451000E+5	1.87003020E+2	0.00000000E+0	0.00000000E+0	6.98200000E-11	3.21600000E-10	1.48000000E+2	8.94029068E-5
6.91897000E+5	1.87997913E+2	0.00000000E+0	0.00000000E+0	6.72400000E-11	3.16900000E-10	1.24000000E+2	8.89855551E-5
6.96329000E+5	1.88993285E+2	0.00000000E+0	0.00000000E+0	6.60900000E-11	3.13500000E-10	1.52000000E+2	8.90672194E-5
7.00795000E+5	1.89999048E+2	0.00000000E+0	0.00000000E+0	6.41800000E-11	3.11300000E-10	1.41000000E+2	8.90765505E-5
7.05242000E+5	1.90998239E+2	0.00000000E+0	0.00000000E+0	6.37900000E-11	3.10200000E-10	1.46000000E+2	8.91198920E-5
7.09702000E+5	1.91994214E+2	0.00000000E+0	0.00000000E+0	6.32600000E-11	3.10500000E-10	1.37000000E+2	8.90209572E-5
7.14138000E+5	1.92995129E+2	0.00000000E+0	0.00000000E+0	6.38600000E-11	3.12200000E-10	1.58000000E+2	8.90340226E-5
7.18564000E+5	1.94008114E+2	0.00000000E+0	0.00000000E+0	6.35700000E-11	3.12700000E-10	1.44000000E+2	8.90428590E-5
7.22997000E+5	1.95001813E+2	0.00000000E+0	0.00000000E+0	6.29900000E-11	3.12200000E-10	1.36000000E+2	8.90533792E-5
7.27436000E+5	1.96003531E+2	0.00000000E+0	0.00000000E+0	6.22300000E-11	3.10600000E-10	1.23000000E+2	8.93196540E-5
7.31914000E+5	1.97005227E+2	0.00000000E+0	0.00000000E+0	6.27700000E-11	3.08300000E-10	1.37000000E+2	8.89221208E-5
7.36348000E+5	1.97999212E+2	0.00000000E+0	0.00000000E+0	6.06000000E-11	3.06300000E-10	1.16000000E+2	8.87355195E-5
7.40787000E+5	1.98997169E+2	0.00000000E+0	0.00000000E+0	5.97300000E-11	3.04900000E-10	1.38000000E+2	8.89393912E-5
7.45243000E+5	1.99996537E+2	0.00000000E+0	0.00000000E+0	5.90900000E-11	3.03900000E-10	1.19000000E+2	8.90915768E-5
7.49681000E+5	2.00997311E+2	0.00000000E+0	0.00000000E+0	5.86000000E-11	3.03600000E-10	1.47000000E+2	8.91725408E-5
7.54081000E+5	2.01997531E+2	0.00000000E+0	0.00000000E+0	5.82000000E-11	3.04400000E-10	1.34000000E+2	8.90281664E-5
7.58500000E+5	2.02992757E+2	0.00000000E+0	0.00000000E+0	5.97500000E-11	3.06800000E-10	1.38000000E+2	8.85535674E-5
7.62942000E+5	2.04003689E+2	0.00000000E+0	0.00000000E+0	6.02400000E-11	3.10600000E-10	1.30000000E+2	8.89296727E-5
7.67390000E+5	2.05008811E+2	0.00000000E+0	0.00000000E+0	5.99300000E-11	3.09500000E-10	1.61000000E+2	8.89031874E-5
7.71809000E+5	2.06003067E+2	0.00000000E+0	0.00000000E+0	5.87600000E-11	2.85300000E-10	1.59000000E+2	8.90138673E-5
7.76234000E+5	2.07006088E+2	0.00000000E+0	0.00000000E+0	5.80000000E-11	3.18000000E-10	1.30000000E+2	8.87885885E-5
7.80714000E+5	2.08000367E+2	0.00000000E+0	0.00000000E+0	5.80000000E-11	3.14400000E-10	1.25000000E+2	8.92900007E-5
7.85181000E+5	2.08995567E+2	0.00000000E+0	0.00000000E+0	5.77900000E-11	2.62800000E-10	9.70000000E+1	8.92943578E-5
7.89601000E+5	2.09999329E+2	0.00000000E+0	0.00000000E+0	5.73700000E-11	3.03600000E-10	1.30000000E+2	8.91836720E-5
7.94034000E+5	2.10995764E+2	0.00000000E+0	0.00000000E+0	5.73400000E-11	3.40000000E-10	1.23000000E+2	8.93917846E-5
7.98490000E+5	2.11998494E+2	0.00000000E+0	0.00000000E+0	5.72000000E-11	3.21300000E-10	1.10000000E+2	8.92899560E-5
8.02944000E+5	2.12995024E+2	0.00000000E+0	0.00000000E+0	5.70300000E-11	2.50500000E-10	1.38000000E+2	8.91068088E-5
8.07375000E+5	2.13996277E+2	0.00000000E+0	0.00000000E+0	5.70400000E-11	3.21200000E-10	1.20000000E+2	8.94489425E-5
8.11808000E+5	2.15009822E+2	0.00000000E+0	0.00000000E+0	5.69900000E-11	3.18800000E-10	1.45000000E+2	8.92256187E-5
8.16208000E+5	2.16006293E+2	0.00000000E+0	0.00000000E+0	5.64200000E-11	3.23000000E-10	1.48000000E+2	8.93682169E-5
8.20647000E+5	2.17001554E+2	0.00000000E+0	0.00000000E+0	5.55500000E-11	3.22300000E-10	1.06000000E+2	8.92954337E-5
8.25152000E+5	2.17999841E+2	0.00000000E+0	0.00000000E+0	5.43400000E-11	3.19000000E-10	1.32000000E+2	8.92786222E-5
8.29629000E+5	2.18998665E+2	0.00000000E+0	0.00000000E+0	5.33300000E-11	3.15700000E-10	1.25000000E+2	8.91503381E-5
8.34041000E+5	2.19995972E+2	0.00000000E+0	0.00000000E+0	5.27900000E-11	3.12900000E-10	1.26000000E+2	8.92372029E-5
8.38483000E+5	2.20998031E+2	0.00000000E+0	0.00000000E+0	5.21500000E-11	3.10700000E-10	9.80000000E+1	8.93438327E-5
8.42919000E+5	2.21996874E+2	0.00000000E+0	0.00000000E+0	5.14500000E-11	3.09300000E-10	1.11000000E+2	8.92873006E-5
8.47354000E+5	2.22995670E+2	0.00000000E+0	0.00000000E+0	5.06000000E-11	3.09200000E-10	1.15000000E+2	8.90508639E-5
8.51782000E+5	2.23988525E+2	0.00000000E+0	0.00000000E+0	5.08000000E-11	3.10900000E-10	9.60000000E+1	8.91121255E-5
8.56237000E+5	2.25012385E+2	0.00000000E+0	0.00000000E+0	5.03600000E-11	3.12000000E-10	1.15000000E+2	8.90877174E-5
8.60663000E+5	2.26004442E+2	0.00000000E+0	0.00000000E+0	4.96400000E-11	3.11800000E-10	1.04000000E+2	8.91526090E-5
8.65109000E+5	2.27002641E+2	0.00000000E+0	0.00000000E+0	4.95200000E-11	3.11000000E-10	1.08000000E+2	8.91109841E-5
8.69538000E+5	2.28008824E+2	0.00000000E+0	0.00000000E+0	4.85800000E-11	3.10400000E-10	1.27000000E+2	8.92300235E-5
8.73988000E+5	2.28995533E+2	0.00000000E+0	0.00000000E+0	4.87000000E-11	3.10400000E-10	9.80000000E+1	8.92252403E-5
8.78421000E+5	2.29996738E+2	0.00000000E+0	0.00000000E+0	4.82400000E-11	3.11100000E-10	1.16000000E+2	8.93172043E-5
8.82839000E+5	2.31000949E+2	0.00000000E+0	0.00000000E+0	4.83800000E-11	3.12600000E-10	1.27000000E+2	8.91989486E-5
8.87273000E+5	2.31999202E+2	0.00000000E+0	0.00000000E+0	4.81200000E-11	3.15600000E-10	1.20000000E+2	8.90307980E-5
8.92489000E+5	2.32993131E+2	0.00000000E+0	0.00000000E+0	4.88000000E-11	3.20200000E-10	1.20000000E+2	8.91126620E-5
8.96907000E+5	2.33994534E+2	0.00000000E+0	0.00000000E+0	4.91700000E-11	3.25500000E-10	1.17000000E+2	8.90626268E-5
9.01352000E+5	2.34999807E+2	0.00000000E+0	0.00000000E+0	4.99300000E-11	3.30800000E-10	1.15000000E+2	8.90570747E-5
9.05853000E+5	2.36008260E+2	0.00000000E+0	0.00000000E+0	5.03300000E-11	3.35300000E-10	1.25000000E+2	8.90677797E-5
9.10287000E+5	2.37005823E+2	0.00000000E+0	0.00000000E+0	5.06600000E-11	3.39500000E-10	1.18000000E+2	8.91611951E-5
9.14755000E+5	2.38005868E+2	0.00000000E+0	0.00000000E+0	5.09700000E-11	3.43600000E-10	1.14000000E+2	8.91100751E-5
9.19195000E+5	2.38998413E+2	0.00000000E+0	0.00000000E+0	5.28600000E-11	3.47900000E-10	1.21000000E+2	8.91927915E-5
9.23665000E+5	2.40001071E+2	0.00000000E+0	0.00000000E+0	5.18800000E-11	3.52800000E-10	1.11000000E+2	8.90467899E-5
9.28162000E+5	2.40998356E+2	0.00000000E+0	0.00000000E+0	5.24500000E-11	3.58400000E-10	1.18000000E+2	8.90224980E-5
9.32596000E+5	2.41993456E+2	0.00000000E+0	0.00000000E+0	5.39000000E-11	3.64300000E-10	1.18000000E+2	8.92007398E-5
9.37048000E+5	2.42997179E+2	0.00000000E+0	0.00000000E+0	5.35200000E-11	3.70900000E-10	1.10000000E+2	8.89409022E-5
9.41480000E+5	2.43992980E+2	0.00000000E+0	0.00000000E+0	5.38500000E-11	3.78200000E-10	1.27000000E+2	8.90201883E-5
9.45924000E+5	2.45001342E+2	0.00000000E+0	0.00000000E+0	5.50200000E-11	3.85900000E-10	1.15000000E+2	8.92718481E-5
9.50365000E+5	2.46005126E+2	0.00000000E+0	0.00000000E+0	5.52800000E-11	3.93100000E-10	1.33000000E+2	8.87904899E-5
9.54821000E+5	2.47004866E+2	0.00000000E+0	0.00000000E+0	5.62200000E-11	3.99700000E-10	1.18000000E+2	8.91861903E-5
9.59242000E+5	2.48005412E+2	0.00000000E+0	0.00000000E+0	5.61500000E-11	4.05500000E-10	1.22000000E+2	8.89377491E-5
9.63680000E+5	2.48999577E+2	0.00000000E+0	0.00000000E+0	5.70600000E-11	4.11000000E-10	1.23000000E+2	8.92032730E-5
9.68114000E+5	2.49999242E+2	0.00000000E+0	0.00000000E+0	5.72300000E-11	4.16400000E-10	1.38000000E+2	8.89482396E-5
9.72003000E+5	2.50999157E+2	0.00000000E+0	0.00000000E+0	5.72500000E-11	4.15200000E-10	1.32000000E+2	8.87552337E-5
9.75894000E+5	2.51995784E+2	0.00000000E+0	0.00000000E+0	5.67000000E-11	4.13900000E-10	1.37000000E+2	8.88692813E-5
9.79757000E+5	2.53001034E+2	0.00000000E+0	0.00000000E+0	5.63400000E-11	4.12500000E-10	1.31000000E+2	8.89300005E-5
9.83610000E+5	2.53999342E+2	0.00000000E+0	0.00000000E+0	5.59800000E-11	4.11000000E-10	1.27000000E+2	8.90774326E-5
9.87481000E+5	2.55000603E+2	0.00000000E+0	0.00000000E+0	5.52000000E-11	4.09400000E-10	1.32000000E+2	8.86493312E-5
9.91317000E+5	2.55997424E+2	0.00000000E+0	0.00000000E+0	5.50100000E-11	4.07600000E-10	1.01000000E+2	8.88967322E-5
9.95159000E+5	2.57000791E+2	0.00000000E+0	0.00000000E+0	5.43700000E-11	4.06000000E-10	1.44000000E+2	8.92965244E-5
9.99023000E+5	2.58003173E+2	0.00000000E+0	0.00000000E+0	5.40100000E-11	4.05200000E-10	1.09000000E+2	8.91722189E-5
1.00290800E+6	2.58998429E+2	0.00000000E+0	0.00000000E+0	5.39400000E-11	4.04100000E-10	1.41000000E+2	8.92941283E-5
1.00676000E+6	2.60000707E+2	0.00000000E+0	0.00000000E+0	5.35800000E-11	4.02500000E-10	1.13000000E+2	8.94650834E-5
