G:\BEAR_storage\User_Experiments\20220317_arneodo\file(1)_Region 5__0081.txt
Ring Energy (GeV): 2
Lifetime (hours): 15.63
Scan beginning: 3/21/2022	8:07:35 PM
Ring current (mA): 308.66
Source position: x (mm): 0.006 x' (mrad): 0.001 y (mm): -0.001 y' (mrad): -0
Scan end: 3/21/2022	8:42:42 PM
Ring current (mA): 308.62
Source position: x (mm): 0.007 x' (mrad): -0 y (mm): -0.001 y' (mrad): -0.001

SCAN TYPE: PHOTON ENERGY VS VAR_1 VS VAR_2

FILE INFO: FILE INFO:

SCAN PARAMETERS
waiting time (ms): 1000
Number of scans: 1
Current scan number: 1
DARK OFF 
PREDARK OFF 

SCAN PARAMETERS
Regions configuration: 
number of regions: 7
Mirror grating scan: on
Timed acquisition: off
Region 1:
Initial energy (eV): 3.000000
Final energy (eV): 4.500000
Delta energy (eV): 0.100000
Deviation angle choice: Degrees: 
Deviation angle (°): NaN
B270 window
GNIM channel
range keithley B 200 pA
range keithley C 200 pA
range keithley A 200 pA
Var_1: PsiC 0.000000
Var_2: PhiM0.000000
Bias CEM (V): 0.000000
Bias Keithley B (V): -30.000000
Name region: 
Region 2:
Initial energy (eV): 4.000000
Final energy (eV): 8.000000
Delta energy (eV): 0.100000
Deviation angle choice: Degrees: 
Deviation angle (°): NaN
SiO2 window
GNIM channel
range keithley B 200 pA
range keithley C 200 pA
range keithley A 200 pA
Var_1: PsiC 0.000000
Var_2: PhiM0.000000
Bias CEM (V): 0.000000
Bias Keithley B (V): -30.000000
Name region: 
Region 3:
Initial energy (eV): 7.000000
Final energy (eV): 12.000000
Delta energy (eV): 0.100000
Deviation angle choice: Degrees: 
Deviation angle (°): NaN
filter LiF window
GNIM channel
range keithley B 200 pA
range keithley C 200 pA
range keithley A 200 pA
Var_1: PsiC 0.000000
Var_2: PhiM0.000000
Bias CEM (V): 0.000000
Bias Keithley B (V): -30.000000
Name region: 
Region 4:
Initial energy (eV): 11.000000
Final energy (eV): 18.000000
Delta energy (eV): 0.100000
Deviation angle choice: Degrees: 
Deviation angle (°): NaN
In filter
GNIM channel
range keithley B 200 pA
range keithley C 200 pA
range keithley A 200 pA
Var_1: PsiC 0.000000
Var_2: PhiM0.000000
Bias CEM (V): 0.000000
Bias Keithley B (V): -30.000000
Name region: 
Region 5:
Initial energy (eV): 15.000000
Final energy (eV): 25.000000
Delta energy (eV): 0.100000
Deviation angle choice: Degrees: 
Deviation angle (°): NaN
Sn filter
GNIM channel
range keithley B 200 pA
range keithley C 200 pA
range keithley A 200 pA
Var_1: PsiC 0.000000
Var_2: PhiM0.000000
Bias CEM (V): 0.000000
Bias Keithley B (V): -30.000000
Name region: 
Region 6:
Initial energy (eV): 23.000000
Final energy (eV): 45.000000
Delta energy (eV): 0.100000
Deviation angle choice: Degrees: 
Deviation angle (°): NaN
Full Beam
GNIM channel
range keithley B 20 nA
range keithley C 200 pA
range keithley A 20 nA
Var_1: PsiC 0.000000
Var_2: PhiM0.000000
Bias CEM (V): 0.000000
Bias Keithley B (V): -30.000000
Name region: 
Region 7:
Initial energy (eV): 23.000000
Final energy (eV): 45.000000
Delta energy (eV): 0.100000
Deviation angle choice: Degrees: 
Deviation angle (°): NaN
Al filter
GNIM channel
range keithley B 20 nA
range keithley C 200 pA
range keithley A 20 nA
Var_1: PsiC 0.000000
Var_2: PhiM0.000000
Bias CEM (V): 0.000000
Bias Keithley B (V): -30.000000
Name region: 

BEAR MONOCHROMATOR CONFIGURATION: 
Current Grating Position:     -236071.80
Current Mirror Position: 2557.0
Current Grating: GNIM
P2 phiz position:  0.0000
Mono axis position: 73.5000
Current Photon Energy (eV): 2.641
Current Deviation Angle: 29.905
Vertical Exit Slits (um): 100.000
Exit slit y axis position: 1.3625
Horizontal Exit Slits (um):  889.156
Exit slit z axis position: 1.9229
Mitutoyo position (mm): 

Dose on sample (mJ/cm^2): NaN

ENERGY CALIBRATION:
offset grating G1200: yes
Delta 0 order G1200:  -1100.0
offset grating G1800: not
Delta 0 order G1800:  0.0
offset grating GNIM: not
Delta 0 order GNIM:  0.0
ZERO ORDER POSITIONS:
Grating G1200: Mirror position:  4938.0
Grating position: -105355.0
Grating G1800: 
Mirror position:  4938.0
Grating position: -106345.0
Grating GNIM: 
Mirror position:  10000.0
Grating position: 227300.0

Initial filter: Al filter

EXPERIMENTAL CHAMBER CONFIGURATION: 
PsiC (deg):   -0.000186
Phi Analyzer (degrees): 89.993255
Theta Manipulator (degrees): -44.000040
Theta Analyzer (degrees): -135.001468
PhiM (degrees): -0.003077
XM (mm): -11.999075
YM (mm): 9.947225
ZM (mm): (Warning: for kinetic energy scans, 
this parameter is given in the scan settings) 
-6.001413
TiltM (°): 0.000138

ELECTRON ANALYZER CONFIGURATION: 
Current Kinetik energy (eV): 35.0
Mode: DE = COST
Pass Energy (eV):  100.000
CEM: ON
Bias Front-Back CEM (V): 3499.698
Bias Back-Collector CEM (V): 100.874
Bias Retard-Front CEM: 100.104COIL VALUES
Ix (amps):2.820
Iy (amps): 6.789
Iz (amps): 37.403

POLARIZATION SELECTOR CONFIGURATION:
Psi1 (rad): -0.001665535
Psi2 (rad): 0.001417093
Z min position (mm): 46.599650
DZ position (mm): 18.599100
Zmin 0 (mm): 65.700000
DZ0 (mm): 54.000000

BEAM SELECTOR CONFIGURATION:
Zmin position (mm): NaN
DZ position (mm): NaN
Y+ position (mm): NaN
Y- position (mm): NaN

CHANNEL ELECTRON MULTIPLIER CONFIGURATION:
CEM configured: OFF
Bias CEM: 0.000000

FLUORESCENCE DETECTOR CONFIGURATION:
Not configured

LUMINESCENCE MONOCHROMATOR CONFIGURATION:
Optical fiber position (mm): 0.000000
Optical fiber Switch inside: ON
Optical fiber Switch outside: ON
Monochromator wavelength (A): 0.000000
Limit Switches: ON

I0 MONITOR PARAMETERS:
I0 detector position(mm): NaN
Lower switch: OFF
Upper switch: OFF
Valve status:unread

PRESSURE PARAMETERS:
Monitor chamber pressure (mbar): 8.976e-10
Experimental chamber pressure -ION GAUGE-(mbar): 0.000000E+0

XMCD PARAMETERS:
Xmcd OFF
Xmcd Direction -
Xmcd current (A): 0.000000

Gated scan off

Instrument 1: AMMETER KEITHLEY 6517A B
Measure type: Current
range type: set range value
range value (ampere):  200 pA
Integration time:  set NPLC value
NPLC value: 10.000
Digital filter count: 2
SAMPLE BIAS (V): -30.000
Vsource: ON
Output Voltage value: 30.000
Vsource range: 1000 V

Range Keithley B changed to 20 nA

Range Keithley B changed to 200 pA

Range Keithley B changed to 20 nA

Range Keithley B changed to 200 pA

Keithley B Bias (V) changed to: 0.000000

Range Keithley B changed to 20 nA

Keithley B Bias (V) changed to: -30.000000

Range Keithley B changed to 200 pA

Range Keithley B changed to 20 nA

Range Keithley B changed to 200 pA

Range Keithley B changed to 20 nA

Range Keithley B changed to 200 pA

Range Keithley B changed to 20 nA

Range Keithley B changed to 200 pA

Keithley B Bias (V) changed to: 0.000000

Keithley B Bias (V) changed to: -30.000000

Range Keithley B changed to 20 nA

Instrument 2: AMMETER KEITHLEY 6517A A
Measure type: Current
range type: set range value
range value (ampere):  200 pA
Integration time:  set NPLC value
NPLC value: 10.000
Digital filter count: 2
Vsource: OFF
Output Voltage value: -0.000
Vsource range: 100 V
Trigger source: bus

Range Keithley A changed to 20 nA

Range Keithley A changed to 200 nA

Range Keithley A changed to 200 pA

Range Keithley A changed to 20 nA

Range Keithley A changed to 200 pA

Range Keithley A changed to 20 nA

Range Keithley A changed to 200 nA

Range Keithley A changed to 200 pA

Range Keithley A changed to 20 nA

Range Keithley A changed to 200 pA

Range Keithley A changed to 20 nA

Range Keithley A changed to 200 nA

Range Keithley A changed to 200 pA

Range Keithley A changed to 20 nA

Range Keithley A changed to 200 pA

Range Keithley A changed to 20 nA

Range Keithley A changed to 200 pA

Range Keithley A changed to 20 nA

Instrument 3: COUNTER ORTEC 996Integration time (sec): 1.000


Range Keithley C changed to 200 nA


Range Keithley C changed to 2 uA


Range Keithley C changed to 200 nA


Range Keithley C changed to 2 uA


Range Keithley C changed to 200 pA


________________________________________________________________________________

RelativeTime (msec)	Photon Energy	Var_1	Var_2	INSTR_1_Sample with Bias _(ampere ) 	INSTR_2_Monitor IM_(ampere)  	INSTR_3_Ortec 996 counts_(counts)	I_BPM_sum (Amps)	
________________________________________________________________________________

1.49404800E+6	1.50001126E+1	0.00000000E+0	0.00000000E+0	9.30100000E-13	3.66340000E-12	3.00000000E+0	9.02924765E-5
1.50128900E+6	1.50999625E+1	0.00000000E+0	0.00000000E+0	9.38700000E-13	3.76270000E-12	1.00000000E+1	8.99041700E-5
1.50736700E+6	1.52000745E+1	0.00000000E+0	0.00000000E+0	9.58600000E-13	3.85100000E-12	8.00000000E+0	9.00093693E-5
1.51357400E+6	1.52999541E+1	0.00000000E+0	0.00000000E+0	9.53800000E-13	3.94220000E-12	4.00000000E+0	8.95926135E-5
1.51959900E+6	1.54000310E+1	0.00000000E+0	0.00000000E+0	9.74700000E-13	4.04010000E-12	9.00000000E+0	8.96431940E-5
1.52574800E+6	1.55000318E+1	0.00000000E+0	0.00000000E+0	9.89600000E-13	4.14330000E-12	9.00000000E+0	8.96501886E-5
1.53194900E+6	1.55999676E+1	0.00000000E+0	0.00000000E+0	1.00830000E-12	4.24220000E-12	5.00000000E+0	8.99194527E-5
1.53796800E+6	1.57000120E+1	0.00000000E+0	0.00000000E+0	1.01070000E-12	4.32080000E-12	1.10000000E+1	9.00513488E-5
1.54414400E+6	1.58000014E+1	0.00000000E+0	0.00000000E+0	1.01460000E-12	4.39790000E-12	1.60000000E+1	8.97114771E-5
1.55033500E+6	1.59000124E+1	0.00000000E+0	0.00000000E+0	1.04700000E-12	4.47670000E-12	1.10000000E+1	8.97399771E-5
1.55638100E+6	1.60000006E+1	0.00000000E+0	0.00000000E+0	1.04520000E-12	4.53210000E-12	1.40000000E+1	8.95796167E-5
1.56267800E+6	1.61000256E+1	0.00000000E+0	0.00000000E+0	1.03900000E-12	4.58300000E-12	1.20000000E+1	8.97686499E-5
1.56867100E+6	1.62000010E+1	0.00000000E+0	0.00000000E+0	1.05160000E-12	4.63690000E-12	9.00000000E+0	8.98542005E-5
1.57485300E+6	1.62999882E+1	0.00000000E+0	0.00000000E+0	1.06630000E-12	4.69240000E-12	1.10000000E+1	8.97780883E-5
1.58108300E+6	1.64000084E+1	0.00000000E+0	0.00000000E+0	1.07160000E-12	4.75650000E-12	2.50000000E+1	8.95733702E-5
1.58707100E+6	1.64999956E+1	0.00000000E+0	0.00000000E+0	1.08680000E-12	4.82250000E-12	1.70000000E+1	8.98657697E-5
1.59327000E+6	1.66000160E+1	0.00000000E+0	0.00000000E+0	1.09550000E-12	4.90150000E-12	7.00000000E+0	8.95407366E-5
1.59948200E+6	1.66999802E+1	0.00000000E+0	0.00000000E+0	1.10260000E-12	4.99200000E-12	9.00000000E+0	8.96042752E-5
1.60543100E+6	1.68000254E+1	0.00000000E+0	0.00000000E+0	1.12100000E-12	5.09380000E-12	1.80000000E+1	8.97778439E-5
1.61149200E+6	1.69000163E+1	0.00000000E+0	0.00000000E+0	1.13620000E-12	5.22150000E-12	1.90000000E+1	8.97893238E-5
1.61750200E+6	1.70000001E+1	0.00000000E+0	0.00000000E+0	1.15200000E-12	5.35890000E-12	1.60000000E+1	8.98374337E-5
1.62355600E+6	1.70999792E+1	0.00000000E+0	0.00000000E+0	1.18160000E-12	5.51960000E-12	8.00000000E+0	8.97261399E-5
1.63045400E+6	1.71999567E+1	0.00000000E+0	0.00000000E+0	1.20520000E-12	5.70260000E-12	2.10000000E+1	8.97750932E-5
1.63631800E+6	1.72999851E+1	0.00000000E+0	0.00000000E+0	1.23540000E-12	5.91900000E-12	1.50000000E+1	8.95223605E-5
1.64248300E+6	1.74000456E+1	0.00000000E+0	0.00000000E+0	1.27100000E-12	6.16560000E-12	1.90000000E+1	8.94301223E-5
1.64833300E+6	1.74999941E+1	0.00000000E+0	0.00000000E+0	1.31190000E-12	6.44660000E-12	2.20000000E+1	8.95329314E-5
1.65444700E+6	1.76000342E+1	0.00000000E+0	0.00000000E+0	1.34230000E-12	6.76710000E-12	3.10000000E+1	8.98019957E-5
1.66058300E+6	1.76999959E+1	0.00000000E+0	0.00000000E+0	1.40280000E-12	7.13870000E-12	3.00000000E+1	8.93677967E-5
1.66638400E+6	1.77999862E+1	0.00000000E+0	0.00000000E+0	1.46010000E-12	7.56860000E-12	3.00000000E+1	8.97871989E-5
1.67244000E+6	1.79000392E+1	0.00000000E+0	0.00000000E+0	1.52640000E-12	8.05580000E-12	2.80000000E+1	8.95393657E-5
1.67845100E+6	1.79999524E+1	0.00000000E+0	0.00000000E+0	1.59930000E-12	8.60930000E-12	2.80000000E+1	8.95157146E-5
1.68429600E+6	1.81000771E+1	0.00000000E+0	0.00000000E+0	1.68450000E-12	9.22940000E-12	3.20000000E+1	8.96486479E-5
1.69038300E+6	1.81999684E+1	0.00000000E+0	0.00000000E+0	1.76510000E-12	9.90910000E-12	3.60000000E+1	8.96938550E-5
1.69629700E+6	1.83000654E+1	0.00000000E+0	0.00000000E+0	1.84640000E-12	1.06511000E-11	3.40000000E+1	8.91780274E-5
1.70237900E+6	1.83999138E+1	0.00000000E+0	0.00000000E+0	1.95720000E-12	1.14573000E-11	3.60000000E+1	8.98042696E-5
1.70847700E+6	1.85000188E+1	0.00000000E+0	0.00000000E+0	2.07340000E-12	1.23370000E-11	4.40000000E+1	8.98038524E-5
1.71437700E+6	1.86000034E+1	0.00000000E+0	0.00000000E+0	2.17490000E-12	1.32614000E-11	5.10000000E+1	8.99479824E-5
1.72048000E+6	1.87000744E+1	0.00000000E+0	0.00000000E+0	2.27700000E-12	1.42004000E-11	4.40000000E+1	8.98195106E-5
1.72653800E+6	1.87999572E+1	0.00000000E+0	0.00000000E+0	2.39710000E-12	1.51987000E-11	5.20000000E+1	8.98231107E-5
1.73240500E+6	1.89000371E+1	0.00000000E+0	0.00000000E+0	2.51750000E-12	1.62212000E-11	5.40000000E+1	8.99055439E-5
1.73847500E+6	1.90000082E+1	0.00000000E+0	0.00000000E+0	2.62050000E-12	1.73003000E-11	5.40000000E+1	9.00337505E-5
1.74440000E+6	1.91000289E+1	0.00000000E+0	0.00000000E+0	2.73700000E-12	1.84439000E-11	8.00000000E+1	9.01979405E-5
1.75039700E+6	1.91999334E+1	0.00000000E+0	0.00000000E+0	2.88810000E-12	1.96932000E-11	6.70000000E+1	8.98863780E-5
1.75638400E+6	1.93000668E+1	0.00000000E+0	0.00000000E+0	3.01970000E-12	2.10525000E-11	8.50000000E+1	8.96786707E-5
1.76221000E+6	1.93999891E+1	0.00000000E+0	0.00000000E+0	3.15220000E-12	2.25011000E-11	6.80000000E+1	8.98632693E-5
1.76812400E+6	1.94999881E+1	0.00000000E+0	0.00000000E+0	3.30480000E-12	2.40923000E-11	8.70000000E+1	8.99582940E-5
1.77417700E+6	1.96000189E+1	0.00000000E+0	0.00000000E+0	3.46060000E-12	2.57892000E-11	7.60000000E+1	8.98359823E-5
1.77991500E+6	1.96999079E+1	0.00000000E+0	0.00000000E+0	3.62900000E-12	2.75573000E-11	1.00000000E+2	8.97230106E-5
1.78598300E+6	1.98000514E+1	0.00000000E+0	0.00000000E+0	3.79660000E-12	2.94242000E-11	9.00000000E+1	8.97715378E-5
1.79168100E+6	1.98998267E+1	0.00000000E+0	0.00000000E+0	3.96560000E-12	3.12901000E-11	1.07000000E+2	8.96617043E-5
1.79733100E+6	2.00000897E+1	0.00000000E+0	0.00000000E+0	4.13400000E-12	3.31758000E-11	1.20000000E+2	8.99245042E-5
1.80305400E+6	2.01000805E+1	0.00000000E+0	0.00000000E+0	4.26370000E-12	3.50231000E-11	1.12000000E+2	8.96962630E-5
1.80877400E+6	2.01998759E+1	0.00000000E+0	0.00000000E+0	4.41470000E-12	3.68705000E-11	1.24000000E+2	8.96794366E-5
1.81452800E+6	2.03000946E+1	0.00000000E+0	0.00000000E+0	4.54560000E-12	3.86620000E-11	1.26000000E+2	8.97347527E-5
1.82020700E+6	2.03999525E+1	0.00000000E+0	0.00000000E+0	4.66430000E-12	4.04160000E-11	1.11000000E+2	8.96971333E-5
1.82595600E+6	2.05001108E+1	0.00000000E+0	0.00000000E+0	4.77690000E-12	4.21430000E-11	1.30000000E+2	8.99409640E-5
1.83171300E+6	2.05999051E+1	0.00000000E+0	0.00000000E+0	4.88600000E-12	4.38374000E-11	1.37000000E+2	8.97558498E-5
1.83743000E+6	2.07000105E+1	0.00000000E+0	0.00000000E+0	4.98730000E-12	4.55163000E-11	1.25000000E+2	8.98016709E-5
1.84311700E+6	2.07999268E+1	0.00000000E+0	0.00000000E+0	5.08530000E-12	4.71612000E-11	1.50000000E+2	8.99243700E-5
1.84884000E+6	2.09000629E+1	0.00000000E+0	0.00000000E+0	5.17880000E-12	4.88033000E-11	1.46000000E+2	8.95766842E-5
1.85455900E+6	2.10000506E+1	0.00000000E+0	0.00000000E+0	5.24970000E-12	5.03904000E-11	1.35000000E+2	8.96014529E-5
1.86026900E+6	2.11000537E+1	0.00000000E+0	0.00000000E+0	5.33560000E-12	5.19495000E-11	1.60000000E+2	8.97353249E-5
1.86606400E+6	2.11999487E+1	0.00000000E+0	0.00000000E+0	5.39130000E-12	5.34537000E-11	1.55000000E+2	8.97162991E-5
1.87191200E+6	2.13000156E+1	0.00000000E+0	0.00000000E+0	5.45270000E-12	5.49206000E-11	1.42000000E+2	8.96849233E-5
1.87769600E+6	2.13999838E+1	0.00000000E+0	0.00000000E+0	5.50660000E-12	5.63441000E-11	1.65000000E+2	8.92570304E-5
1.88352800E+6	2.14999504E+1	0.00000000E+0	0.00000000E+0	5.54350000E-12	5.77249000E-11	1.68000000E+2	8.94546943E-5
1.88945000E+6	2.16001692E+1	0.00000000E+0	0.00000000E+0	5.57990000E-12	5.90641000E-11	1.40000000E+2	8.95660567E-5
1.89528600E+6	2.16999798E+1	0.00000000E+0	0.00000000E+0	5.61840000E-12	6.03720000E-11	1.52000000E+2	8.96184730E-5
1.90116700E+6	2.18000569E+1	0.00000000E+0	0.00000000E+0	5.65050000E-12	6.16343000E-11	1.60000000E+2	8.94748526E-5
1.90709700E+6	2.19000033E+1	0.00000000E+0	0.00000000E+0	5.67030000E-12	6.28479000E-11	1.45000000E+2	8.95609307E-5
1.91304100E+6	2.20000001E+1	0.00000000E+0	0.00000000E+0	5.68900000E-12	6.39998000E-11	1.50000000E+2	8.99008202E-5
1.91894400E+6	2.20999965E+1	0.00000000E+0	0.00000000E+0	5.68860000E-12	6.50692000E-11	1.70000000E+2	8.98040789E-5
1.92557700E+6	2.22000602E+1	0.00000000E+0	0.00000000E+0	5.68190000E-12	6.60452000E-11	1.41000000E+2	8.91806470E-5
1.93150300E+6	2.23000590E+1	0.00000000E+0	0.00000000E+0	5.68350000E-12	6.70436000E-11	1.56000000E+2	8.95188885E-5
1.93741300E+6	2.24000606E+1	0.00000000E+0	0.00000000E+0	5.65430000E-12	6.79228000E-11	1.55000000E+2	9.00716233E-5
1.94328200E+6	2.24999704E+1	0.00000000E+0	0.00000000E+0	5.61270000E-12	6.84857000E-11	1.27000000E+2	9.00655735E-5
1.94915900E+6	2.25999406E+1	0.00000000E+0	0.00000000E+0	5.55150000E-12	6.88581000E-11	1.35000000E+2	9.00290835E-5
1.95509100E+6	2.27000032E+1	0.00000000E+0	0.00000000E+0	5.47430000E-12	6.90049000E-11	1.56000000E+2	8.98389476E-5
1.96095800E+6	2.28000637E+1	0.00000000E+0	0.00000000E+0	5.35820000E-12	6.88916000E-11	1.53000000E+2	9.00153148E-5
1.96689800E+6	2.28999817E+1	0.00000000E+0	0.00000000E+0	5.22780000E-12	6.84692000E-11	1.17000000E+2	8.98831504E-5
1.97277300E+6	2.29999581E+1	0.00000000E+0	0.00000000E+0	5.06700000E-12	6.76396000E-11	1.47000000E+2	9.00950420E-5
1.97870400E+6	2.31000263E+1	0.00000000E+0	0.00000000E+0	4.88020000E-12	6.62638000E-11	1.32000000E+2	8.98190248E-5
1.98458100E+6	2.31999576E+1	0.00000000E+0	0.00000000E+0	4.66210000E-12	6.40953000E-11	1.16000000E+2	9.00323439E-5
1.99051500E+6	2.32997812E+1	0.00000000E+0	0.00000000E+0	4.46540000E-12	6.05656000E-11	1.17000000E+2	9.00758255E-5
1.99648000E+6	2.34002438E+1	0.00000000E+0	0.00000000E+0	4.26550000E-12	5.42668000E-11	1.26000000E+2	9.02033377E-5
2.00226900E+6	2.34997715E+1	0.00000000E+0	0.00000000E+0	3.88820000E-12	4.26495000E-11	1.00000000E+2	8.94473212E-5
2.00823400E+6	2.36002404E+1	0.00000000E+0	0.00000000E+0	3.30400000E-12	2.88736000E-11	7.60000000E+1	8.97460925E-5
2.01406900E+6	2.36998279E+1	0.00000000E+0	0.00000000E+0	2.97380000E-12	2.26433000E-11	5.10000000E+1	8.98246366E-5
2.02001100E+6	2.38001205E+1	0.00000000E+0	0.00000000E+0	2.84640000E-12	2.08075000E-11	6.70000000E+1	9.00804508E-5
2.02593800E+6	2.39000053E+1	0.00000000E+0	0.00000000E+0	2.77470000E-12	2.02046000E-11	5.60000000E+1	8.96771150E-5
2.03168400E+6	2.39998378E+1	0.00000000E+0	0.00000000E+0	2.72650000E-12	1.98691000E-11	6.40000000E+1	8.98847359E-5
2.03748100E+6	2.40998908E+1	0.00000000E+0	0.00000000E+0	2.67140000E-12	1.95801000E-11	5.90000000E+1	8.99298865E-5
2.04322700E+6	2.42002073E+1	0.00000000E+0	0.00000000E+0	2.61900000E-12	1.92854000E-11	5.80000000E+1	8.96489280E-5
2.04901100E+6	2.42999148E+1	0.00000000E+0	0.00000000E+0	2.57030000E-12	1.89623000E-11	5.30000000E+1	8.98240882E-5
2.05479800E+6	2.43999122E+1	0.00000000E+0	0.00000000E+0	2.51830000E-12	1.85510000E-11	5.50000000E+1	8.95504552E-5
2.06058700E+6	2.45000492E+1	0.00000000E+0	0.00000000E+0	2.46100000E-12	1.79083000E-11	5.50000000E+1	8.98573118E-5
2.06635600E+6	2.45998743E+1	0.00000000E+0	0.00000000E+0	2.39150000E-12	1.67835000E-11	5.40000000E+1	8.99100947E-5
2.07219900E+6	2.47001173E+1	0.00000000E+0	0.00000000E+0	2.31130000E-12	1.55954000E-11	5.30000000E+1	8.97960472E-5
2.07797000E+6	2.48001755E+1	0.00000000E+0	0.00000000E+0	2.24910000E-12	1.49239000E-11	4.80000000E+1	8.98435014E-5
2.08372800E+6	2.48998823E+1	0.00000000E+0	0.00000000E+0	2.22010000E-12	1.45314000E-11	5.20000000E+1	8.94047009E-5
2.08954800E+6	2.49999344E+1	0.00000000E+0	0.00000000E+0	2.17420000E-12	1.42290000E-11	4.90000000E+1	8.93307226E-5
