G:\BEAR_storage\User_Experiments\20220317_arneodo\file(1)_Region 6__0078.txt
Ring Energy (GeV): 2
Lifetime (hours): 15.3861
Scan beginning: 3/21/2022	3:16:07 PM
Ring current (mA): 308.8
Source position: x (mm): 0.006 x' (mrad): 0.001 y (mm): 0.001 y' (mrad): 0.002
Scan end: 3/21/2022	3:56:57 PM
Ring current (mA): 308.52
Source position: x (mm): 0.006 x' (mrad): 0.001 y (mm): 0 y' (mrad): 0.002

SCAN TYPE: PHOTON ENERGY VS VAR_1 VS VAR_2

FILE INFO: FILE INFO:

SCAN PARAMETERS
waiting time (ms): 0
Number of scans: 1
Current scan number: 1
DARK OFF 
PREDARK OFF 

SCAN PARAMETERS
Regions configuration: 
number of regions: 6
Mirror grating scan: on
Timed acquisition: off
Region 1:
Initial energy (eV): 40.000000
Final energy (eV): 72.000000
Delta energy (eV): 1.000000
Deviation angle choice: Higher order rejection
Deviation angle (°): NaN
Al filter
G1200 channel
range keithley B 20 nA
range keithley C 200 nA
range keithley A 20 nA
Var_1: PsiC 0.000000
Var_2: PhiM0.000000
Bias CEM (V): 0.000000
Bias Keithley B (V): -30.000000
Name region: 
Region 2:
Initial energy (eV): 70.000000
Final energy (eV): 102.000000
Delta energy (eV): 1.000000
Deviation angle choice: Higher order rejection
Deviation angle (°): NaN
Si filter
G1200 channel
range keithley B 20 nA
range keithley C 200 nA
range keithley A 20 nA
Var_1: PsiC 0.000000
Var_2: PhiM0.000000
Bias CEM (V): 0.000000
Bias Keithley B (V): -30.000000
Name region: 
Region 3:
Initial energy (eV): 98.000000
Final energy (eV): 260.000000
Delta energy (eV): 1.000000
Deviation angle choice: Higher order rejection
Deviation angle (°): NaN
Full Beam
G1200 channel
range keithley B 20 nA
range keithley C 200 nA
range keithley A 200 nA
Var_1: PsiC 0.000000
Var_2: PhiM0.000000
Bias CEM (V): 0.000000
Bias Keithley B (V): -30.000000
Name region: 
Region 4:
Initial energy (eV): 255.000000
Final energy (eV): 320.000000
Delta energy (eV): 1.000000
Deviation angle choice: Higher order rejection
Deviation angle (°): NaN
filter Ag 0.6 um
G1200 channel
range keithley B 200 pA
range keithley C 200 nA
range keithley A 200 pA
Var_1: PsiC 0.000000
Var_2: PhiM0.000000
Bias CEM (V): 0.000000
Bias Keithley B (V): -30.000000
Name region: 
Region 5:
Initial energy (eV): 315.000000
Final energy (eV): 1200.000000
Delta energy (eV): 5.000000
Deviation angle choice: Higher order rejection
Deviation angle (°): NaN
Full Beam
G1200 channel
range keithley B 20 nA
range keithley C 200 nA
range keithley A 20 nA
Var_1: PsiC 0.000000
Var_2: PhiM0.000000
Bias CEM (V): 0.000000
Bias Keithley B (V): -30.000000
Name region: 
Region 6:
Initial energy (eV): 1190.000000
Final energy (eV): 1500.000000
Delta energy (eV): 5.000000
Deviation angle choice: Higher order rejection
Deviation angle (°): NaN
filter Ag 0.6 um
G1200 channel
range keithley B 200 pA
range keithley C 200 nA
range keithley A 200 pA
Var_1: PsiC 0.000000
Var_2: PhiM0.000000
Bias CEM (V): 0.000000
Bias Keithley B (V): -30.000000
Name region: 

BEAR MONOCHROMATOR CONFIGURATION: 
Current Grating Position:     -178681.70
Current Mirror Position: 2557.1
Current Grating: G1200
P2 phiz position:  0.0000
Mono axis position: 25.0000
Current Photon Energy (eV): 73.040
Current Deviation Angle: 155.000
Vertical Exit Slits (um): 100.000
Exit slit y axis position: 1.3625
Horizontal Exit Slits (um):  889.156
Exit slit z axis position: 1.9229
Mitutoyo position (mm): 

Dose on sample (mJ/cm^2): NaN

ENERGY CALIBRATION:
offset grating G1200: yes
Delta 0 order G1200:  -1100.0
offset grating G1800: not
Delta 0 order G1800:  0.0
offset grating GNIM: not
Delta 0 order GNIM:  0.0
ZERO ORDER POSITIONS:
Grating G1200: Mirror position:  4938.0
Grating position: -105355.0
Grating G1800: 
Mirror position:  4938.0
Grating position: -106345.0
Grating GNIM: 
Mirror position:  10000.0
Grating position: 227300.0

Initial filter: Si filter

EXPERIMENTAL CHAMBER CONFIGURATION: 
PsiC (deg):   -0.000186
Phi Analyzer (degrees): 89.993255
Theta Manipulator (degrees): -44.000040
Theta Analyzer (degrees): -135.001468
PhiM (degrees): -0.003077
XM (mm): 2.500913
YM (mm): 9.947225
ZM (mm): (Warning: for kinetic energy scans, 
this parameter is given in the scan settings) 
-15.001400
TiltM (°): 0.000138

ELECTRON ANALYZER CONFIGURATION: 
Current Kinetik energy (eV): 35.0
Mode: DE = COST
Pass Energy (eV):  100.000
CEM: ON
Bias Front-Back CEM (V): 3499.698
Bias Back-Collector CEM (V): 100.874
Bias Retard-Front CEM: 100.104COIL VALUES
Ix (amps):2.820
Iy (amps): 6.789
Iz (amps): 37.403

POLARIZATION SELECTOR CONFIGURATION:
Psi1 (rad): -0.001665535
Psi2 (rad): 0.001417093
Z min position (mm): 46.599650
DZ position (mm): 18.599100
Zmin 0 (mm): 65.700000
DZ0 (mm): 54.000000

BEAM SELECTOR CONFIGURATION:
Zmin position (mm): NaN
DZ position (mm): NaN
Y+ position (mm): NaN
Y- position (mm): NaN

CHANNEL ELECTRON MULTIPLIER CONFIGURATION:
CEM configured: OFF
Bias CEM: 0.000000

FLUORESCENCE DETECTOR CONFIGURATION:
Not configured

LUMINESCENCE MONOCHROMATOR CONFIGURATION:
Optical fiber position (mm): 0.000000
Optical fiber Switch inside: ON
Optical fiber Switch outside: ON
Monochromator wavelength (A): 0.000000
Limit Switches: ON

I0 MONITOR PARAMETERS:
I0 detector position(mm): NaN
Lower switch: OFF
Upper switch: OFF
Valve status:unread

PRESSURE PARAMETERS:
Monitor chamber pressure (mbar): 9.646e-10
Experimental chamber pressure -ION GAUGE-(mbar): 0.000000E+0

XMCD PARAMETERS:
Xmcd OFF
Xmcd Direction -
Xmcd current (A): 0.000000

Gated scan off

Instrument 1: AMMETER KEITHLEY 6517A B
Measure type: Current
range type: set range value
range value (ampere):  200 pA
Integration time:  set NPLC value
NPLC value: 10.000
Digital filter count: 2
SAMPLE BIAS (V): -30.000
Vsource: ON
Output Voltage value: 30.000
Vsource range: 1000 V

Range Keithley B changed to 20 nA

Range Keithley B changed to 200 pA

Range Keithley B changed to 20 nA

Range Keithley B changed to 200 pA

Keithley B Bias (V) changed to: 0.000000

Range Keithley B changed to 20 nA

Keithley B Bias (V) changed to: -30.000000

Range Keithley B changed to 200 pA

Range Keithley B changed to 20 nA

Range Keithley B changed to 200 pA

Instrument 2: AMMETER KEITHLEY 6517A A
Measure type: Current
range type: set range value
range value (ampere):  200 pA
Integration time:  set NPLC value
NPLC value: 10.000
Digital filter count: 2
Vsource: OFF
Output Voltage value: -0.000
Vsource range: 100 V
Trigger source: bus

Range Keithley A changed to 20 nA

Range Keithley A changed to 200 nA

Range Keithley A changed to 200 pA

Range Keithley A changed to 20 nA

Range Keithley A changed to 200 pA

Range Keithley A changed to 20 nA

Range Keithley A changed to 200 nA

Range Keithley A changed to 200 pA

Range Keithley A changed to 20 nA

Range Keithley A changed to 200 pA

Instrument 3: COUNTER ORTEC 996Integration time (sec): 1.000


Range Keithley C changed to 200 nA


Range Keithley C changed to 2 uA


Range Keithley C changed to 200 nA


________________________________________________________________________________

RelativeTime (msec)	Photon Energy	Var_1	Var_2	INSTR_1_Sample with Bias _(ampere ) 	INSTR_2_Monitor IM_(ampere)  	INSTR_3_Ortec 996 counts_(counts)	I_BPM_sum (Amps)	
________________________________________________________________________________

2.15256800E+6	1.19000044E+3	0.00000000E+0	0.00000000E+0	7.17300000E-13	1.69418400E-10	1.00000000E+0	8.91272174E-5
2.15883600E+6	1.19501627E+3	0.00000000E+0	0.00000000E+0	7.02000000E-13	1.64574300E-10	4.00000000E+0	8.94224691E-5
2.16423800E+6	1.19997280E+3	0.00000000E+0	0.00000000E+0	6.89200000E-13	1.57876700E-10	3.00000000E+0	8.93846410E-5
2.16905400E+6	1.20503216E+3	0.00000000E+0	0.00000000E+0	6.90800000E-13	1.56750700E-10	3.00000000E+0	8.90219854E-5
2.17387200E+6	1.20998611E+3	0.00000000E+0	0.00000000E+0	6.82000000E-13	1.55568600E-10	2.00000000E+0	8.91545521E-5
2.17871600E+6	1.21500738E+3	0.00000000E+0	0.00000000E+0	6.82900000E-13	1.54200100E-10	4.00000000E+0	8.92845797E-5
2.18348200E+6	1.21999651E+3	0.00000000E+0	0.00000000E+0	6.77400000E-13	1.52620900E-10	4.00000000E+0	8.91796189E-5
2.18827700E+6	1.22499665E+3	0.00000000E+0	0.00000000E+0	6.75100000E-13	1.50828100E-10	7.00000000E+0	8.93393176E-5
2.19305000E+6	1.22999627E+3	0.00000000E+0	0.00000000E+0	6.76200000E-13	1.48823700E-10	6.00000000E+0	8.90767770E-5
2.19784100E+6	1.23501600E+3	0.00000000E+0	0.00000000E+0	6.72300000E-13	1.46618800E-10	4.00000000E+0	8.92582553E-5
2.20264000E+6	1.23998563E+3	0.00000000E+0	0.00000000E+0	6.67300000E-13	1.44245500E-10	2.00000000E+0	8.92256366E-5
2.20742700E+6	1.24499890E+3	0.00000000E+0	0.00000000E+0	6.56000000E-13	1.41674100E-10	6.00000000E+0	8.92988282E-5
2.21220200E+6	1.24999478E+3	0.00000000E+0	0.00000000E+0	6.50800000E-13	1.38909700E-10	1.00000000E+0	8.91205417E-5
2.21698600E+6	1.25500955E+3	0.00000000E+0	0.00000000E+0	6.38700000E-13	1.35978400E-10	3.00000000E+0	8.90680837E-5
2.22178900E+6	1.25999552E+3	0.00000000E+0	0.00000000E+0	6.29000000E-13	1.32868500E-10	1.00000000E+0	8.92511713E-5
2.22657600E+6	1.26499965E+3	0.00000000E+0	0.00000000E+0	6.30200000E-13	1.29212900E-10	7.00000000E+0	8.92685788E-5
2.23138400E+6	1.26999889E+3	0.00000000E+0	0.00000000E+0	6.50800000E-13	1.25754600E-10	2.00000000E+0	8.92407792E-5
2.23618500E+6	1.27500561E+3	0.00000000E+0	0.00000000E+0	6.24900000E-13	1.22655100E-10	3.00000000E+0	8.92039614E-5
2.24098200E+6	1.28000117E+3	0.00000000E+0	0.00000000E+0	6.10200000E-13	1.19453000E-10	4.00000000E+0	8.91873466E-5
2.24578000E+6	1.28500343E+3	0.00000000E+0	0.00000000E+0	6.01100000E-13	1.16129600E-10	2.00000000E+0	8.92840432E-5
2.25063900E+6	1.29000541E+3	0.00000000E+0	0.00000000E+0	5.86000000E-13	1.12716800E-10	3.00000000E+0	8.90076475E-5
2.25543900E+6	1.29499429E+3	0.00000000E+0	0.00000000E+0	5.78900000E-13	1.09306800E-10	2.00000000E+0	8.91983317E-5
2.26024500E+6	1.29998704E+3	0.00000000E+0	0.00000000E+0	5.64600000E-13	1.05823200E-10	3.00000000E+0	8.92246532E-5
2.26500900E+6	1.30500280E+3	0.00000000E+0	0.00000000E+0	5.55800000E-13	1.02355400E-10	3.00000000E+0	8.91097860E-5
2.26979200E+6	1.30999912E+3	0.00000000E+0	0.00000000E+0	5.48500000E-13	9.88797000E-11	4.00000000E+0	8.93769609E-5
2.27459000E+6	1.31500711E+3	0.00000000E+0	0.00000000E+0	5.36000000E-13	9.55082000E-11	3.00000000E+0	8.90029686E-5
2.27938300E+6	1.31999452E+3	0.00000000E+0	0.00000000E+0	5.28200000E-13	9.23378000E-11	1.00000000E+0	8.96437603E-5
2.28418100E+6	1.32500301E+3	0.00000000E+0	0.00000000E+0	5.17900000E-13	8.88802000E-11	3.00000000E+0	8.95355033E-5
2.28964100E+6	1.32996309E+3	0.00000000E+0	0.00000000E+0	5.10300000E-13	8.54563000E-11	0.00000000E+0	8.93971073E-5
2.29435700E+6	1.33500569E+3	0.00000000E+0	0.00000000E+0	4.85800000E-13	8.20123000E-11	2.00000000E+0	8.94526201E-5
2.29915600E+6	1.34002399E+3	0.00000000E+0	0.00000000E+0	4.80300000E-13	7.85872000E-11	0.00000000E+0	8.93077540E-5
2.30393900E+6	1.34499405E+3	0.00000000E+0	0.00000000E+0	4.89700000E-13	7.52268000E-11	2.00000000E+0	8.92903852E-5
2.30873200E+6	1.34999532E+3	0.00000000E+0	0.00000000E+0	4.59300000E-13	7.19353000E-11	1.00000000E+0	8.95161765E-5
2.31348100E+6	1.35499898E+3	0.00000000E+0	0.00000000E+0	4.56100000E-13	6.86940000E-11	1.00000000E+0	8.94429641E-5
2.31826400E+6	1.36000464E+3	0.00000000E+0	0.00000000E+0	4.44400000E-13	6.55074000E-11	2.00000000E+0	8.93211143E-5
2.32293900E+6	1.36497648E+3	0.00000000E+0	0.00000000E+0	4.39200000E-13	6.23703000E-11	1.00000000E+0	8.94340234E-5
2.32763200E+6	1.36999075E+3	0.00000000E+0	0.00000000E+0	4.35500000E-13	5.92826000E-11	1.00000000E+0	8.96577882E-5
2.33241400E+6	1.37503600E+3	0.00000000E+0	0.00000000E+0	4.28700000E-13	5.62155000E-11	2.00000000E+0	8.94228923E-5
2.33707900E+6	1.37996746E+3	0.00000000E+0	0.00000000E+0	4.11300000E-13	5.32974000E-11	0.00000000E+0	8.93397587E-5
2.34172700E+6	1.38498921E+3	0.00000000E+0	0.00000000E+0	4.06400000E-13	5.03868000E-11	0.00000000E+0	8.92530309E-5
2.34652400E+6	1.39003537E+3	0.00000000E+0	0.00000000E+0	3.93400000E-13	4.75278000E-11	2.00000000E+0	8.93157976E-5
2.35131300E+6	1.39499491E+3	0.00000000E+0	0.00000000E+0	3.91800000E-13	4.48226000E-11	0.00000000E+0	8.93005239E-5
2.35595000E+6	1.39997754E+3	0.00000000E+0	0.00000000E+0	3.80800000E-13	4.21844000E-11	0.00000000E+0	8.95800518E-5
2.36060700E+6	1.40497710E+3	0.00000000E+0	0.00000000E+0	3.75700000E-13	3.96041000E-11	0.00000000E+0	8.93867182E-5
2.36530700E+6	1.41002511E+3	0.00000000E+0	0.00000000E+0	3.68600000E-13	3.71358000E-11	0.00000000E+0	8.91968118E-5
2.37000600E+6	1.41496974E+3	0.00000000E+0	0.00000000E+0	3.70100000E-13	3.47681000E-11	1.00000000E+0	8.91146826E-5
2.37463800E+6	1.42001955E+3	0.00000000E+0	0.00000000E+0	3.59300000E-13	3.24748000E-11	1.00000000E+0	8.95121860E-5
2.37928600E+6	1.42497666E+3	0.00000000E+0	0.00000000E+0	3.64900000E-13	3.02900000E-11	0.00000000E+0	8.91970443E-5
2.38393800E+6	1.43001392E+3	0.00000000E+0	0.00000000E+0	3.51800000E-13	2.81951000E-11	0.00000000E+0	8.92684477E-5
2.38859700E+6	1.43501665E+3	0.00000000E+0	0.00000000E+0	3.50800000E-13	2.62012000E-11	0.00000000E+0	8.93315690E-5
2.39324900E+6	1.44002006E+3	0.00000000E+0	0.00000000E+0	3.44300000E-13	2.43183000E-11	0.00000000E+0	8.90944826E-5
2.39796000E+6	1.44497377E+3	0.00000000E+0	0.00000000E+0	3.46100000E-13	2.25168000E-11	0.00000000E+0	8.91004162E-5
2.40262100E+6	1.44999530E+3	0.00000000E+0	0.00000000E+0	3.38400000E-13	2.08166000E-11	1.00000000E+0	8.93015253E-5
2.40727900E+6	1.45497941E+3	0.00000000E+0	0.00000000E+0	3.36200000E-13	1.92087000E-11	0.00000000E+0	8.94100028E-5
2.41191300E+6	1.46000490E+3	0.00000000E+0	0.00000000E+0	3.31300000E-13	1.76800000E-11	0.00000000E+0	8.93593597E-5
2.41657800E+6	1.46502409E+3	0.00000000E+0	0.00000000E+0	3.32600000E-13	1.62635000E-11	1.00000000E+0	8.93939631E-5
2.42122200E+6	1.46999593E+3	0.00000000E+0	0.00000000E+0	3.32900000E-13	1.49531000E-11	0.00000000E+0	8.92664688E-5
2.42588200E+6	1.47498056E+3	0.00000000E+0	0.00000000E+0	3.26200000E-13	1.37093000E-11	0.00000000E+0	8.94043463E-5
2.43053600E+6	1.48002895E+3	0.00000000E+0	0.00000000E+0	3.26400000E-13	1.25198000E-11	0.00000000E+0	8.93373000E-5
2.43517100E+6	1.48499468E+3	0.00000000E+0	0.00000000E+0	3.24800000E-13	1.13916000E-11	0.00000000E+0	8.91064780E-5
2.43982600E+6	1.48998681E+3	0.00000000E+0	0.00000000E+0	3.22000000E-13	1.03847000E-11	0.00000000E+0	8.91914623E-5
2.44446400E+6	1.49501971E+3	0.00000000E+0	0.00000000E+0	3.18900000E-13	9.45380000E-12	0.00000000E+0	8.91096847E-5
2.44916500E+6	1.50001532E+3	0.00000000E+0	0.00000000E+0	3.16700000E-13	8.59520000E-12	0.00000000E+0	8.93157857E-5
