G:\BEAR_storage\User_Experiments\20220108_arneodo\file(1)_Region 5__0017.txt
Ring Energy (GeV): 2
Lifetime (hours): 16.9675
Scan beginning: 8/1/2022	5:47:09 PM
Ring current (mA): 308.93
Source position: x (mm): -0.005 x' (mrad): 0.005 y (mm): -0.004 y' (mrad): 0
Scan end: 8/1/2022	6:14:00 PM
Ring current (mA): 308.2
Source position: x (mm): -0.004 x' (mrad): 0.003 y (mm): -0.003 y' (mrad): 0.001

SCAN TYPE: PHOTON ENERGY VS VAR_1 VS VAR_2

FILE INFO: FILE INFO:

SCAN PARAMETERS
waiting time (ms): 0
Number of scans: 1
Current scan number: 1
DARK OFF 
PREDARK OFF 

SCAN PARAMETERS
Regions configuration: 
number of regions: 7
Mirror grating scan: on
Timed acquisition: off
Region 1:
Initial energy (eV): 3.000000
Final energy (eV): 4.500000
Delta energy (eV): 0.100000
Deviation angle choice: Degrees: 
Deviation angle (°): NaN
B270 window
GNIM channel
range keithley B 200 pA
range keithley C 2 uA
range keithley A 200 pA
Var_1: XM3.000000
Var_2: YM15.000000
Bias CEM (V): 0.000000
Bias Keithley B (V): -30.000000
Name region: 
Region 2:
Initial energy (eV): 4.000000
Final energy (eV): 8.000000
Delta energy (eV): 0.100000
Deviation angle choice: Degrees: 
Deviation angle (°): NaN
SiO2 window
GNIM channel
range keithley B 200 pA
range keithley C 2 uA
range keithley A 200 pA
Var_1: XM3.000000
Var_2: YM15.000000
Bias CEM (V): 0.000000
Bias Keithley B (V): -30.000000
Name region: 
Region 3:
Initial energy (eV): 7.000000
Final energy (eV): 12.000000
Delta energy (eV): 0.100000
Deviation angle choice: Degrees: 
Deviation angle (°): NaN
filter LiF window
GNIM channel
range keithley B 200 pA
range keithley C 2 uA
range keithley A 200 pA
Var_1: XM3.000000
Var_2: YM15.000000
Bias CEM (V): 0.000000
Bias Keithley B (V): -30.000000
Name region: 
Region 4:
Initial energy (eV): 11.000000
Final energy (eV): 18.000000
Delta energy (eV): 0.100000
Deviation angle choice: Degrees: 
Deviation angle (°): NaN
In filter
GNIM channel
range keithley B 200 pA
range keithley C 2 uA
range keithley A 200 pA
Var_1: XM3.000000
Var_2: YM15.000000
Bias CEM (V): 0.000000
Bias Keithley B (V): -30.000000
Name region: 
Region 5:
Initial energy (eV): 15.000000
Final energy (eV): 25.000000
Delta energy (eV): 0.100000
Deviation angle choice: Degrees: 
Deviation angle (°): NaN
Sn filter
GNIM channel
range keithley B 20 nA
range keithley C 2 uA
range keithley A 20 nA
Var_1: XM3.000000
Var_2: YM15.000000
Bias CEM (V): 0.000000
Bias Keithley B (V): -30.000000
Name region: 
Region 6:
Initial energy (eV): 23.000000
Final energy (eV): 45.000000
Delta energy (eV): 0.100000
Deviation angle choice: Degrees: 
Deviation angle (°): NaN
Full Beam
GNIM channel
range keithley B 20 nA
range keithley C 2 uA
range keithley A 20 nA
Var_1: XM3.000000
Var_2: YM15.000000
Bias CEM (V): 0.000000
Bias Keithley B (V): -30.000000
Name region: 
Region 7:
Initial energy (eV): 23.000000
Final energy (eV): 45.000000
Delta energy (eV): 0.100000
Deviation angle choice: Degrees: 
Deviation angle (°): NaN
Al filter
GNIM channel
range keithley B 20 nA
range keithley C 2 uA
range keithley A 20 nA
Var_1: XM3.000000
Var_2: YM15.000000
Bias CEM (V): 0.000000
Bias Keithley B (V): -30.000000
Name region: 

BEAR MONOCHROMATOR CONFIGURATION: 
Current Grating Position:     185052.20
Current Mirror Position: 9999.8
Current Grating: GNIM
P2 phiz position:  -0.0133
Mono axis position: 73.5000
Current Photon Energy (eV): 29.000
Current Deviation Angle: 29.905
Vertical Exit Slits (um): 450.000
Exit slit y axis position: 2.2375
Horizontal Exit Slits (um):  890.000
Exit slit z axis position: 1.9250
Mitutoyo position (mm): 

Dose on sample (mJ/cm^2): NaN

ENERGY CALIBRATION:
offset grating G1200: yes
Delta 0 order G1200:  -500.0
offset grating G1800: not
Delta 0 order G1800:  0.0
offset grating GNIM: not
Delta 0 order GNIM:  0.0
ZERO ORDER POSITIONS:
Grating G1200: Mirror position:  4938.0
Grating position: -105355.0
Grating G1800: 
Mirror position:  4938.0
Grating position: -106345.0
Grating GNIM: 
Mirror position:  10000.0
Grating position: 227300.0

Initial filter: Al filter

EXPERIMENTAL CHAMBER CONFIGURATION: 
PsiC (deg):   0.036413
Phi Analyzer (degrees): -0.009471
Theta Manipulator (degrees): -45.000040
Theta Analyzer (degrees): -0.000455
PhiM (degrees): -0.006155
XM (mm): 2.999938
YM (mm): 14.999863
ZM (mm): (Warning: for kinetic energy scans, 
this parameter is given in the scan settings) 
-8.300075
TiltM (°): -0.000275

COIL VALUES
Ix (amps):2.950
Iy (amps): 6.790
Iz (amps): 14.440

POLARIZATION SELECTOR CONFIGURATION:
Psi1 (rad): -0.001665535
Psi2 (rad): 0.001417093
Z min position (mm): 46.599650
DZ position (mm): 18.599100
Zmin 0 (mm): 66.500000
DZ0 (mm): 53.000000

BEAM SELECTOR CONFIGURATION:
Zmin position (mm): 158.000000
DZ position (mm): 264.000000
Y+ position (mm): 291.700000
Y- position (mm): NaN

CHANNEL ELECTRON MULTIPLIER CONFIGURATION:
CEM configured: OFF
Bias CEM: 0.000000

FLUORESCENCE DETECTOR CONFIGURATION:
Not configured

LUMINESCENCE MONOCHROMATOR CONFIGURATION:
Optical fiber position (mm): 0.000000
Optical fiber Switch inside: OFF
Optical fiber Switch outside: ON
Monochromator wavelength (A): 229000.000000
Limit Switches: OFF

I0 MONITOR PARAMETERS:
I0 detector position(mm): 1.924999E+2
Lower switch: OFF
Upper switch: OFF
Valve status:open

PRESSURE PARAMETERS:
Monitor chamber pressure (mbar): 1.239e-09
Experimental chamber pressure -ION GAUGE-(mbar): 0.000000E+0

XMCD PARAMETERS:
Xmcd OFF
Xmcd Direction -
Xmcd current (A): 0.000000

Gated scan on
Shutter open time (ms): 633604407
Shutter aperture time (ms): -214622

Instrument 1: AMMETER KEITHLEY 6517A B
Measure type: Current
range type: set range value
range value (ampere):  200 pA
Integration time:  set NPLC value
NPLC value: 10.000
Digital filter count: 2
SAMPLE BIAS (V): -30.000
Vsource: ON
Output Voltage value: 30.000
Vsource range: 1000 V

Range Keithley B changed to 20 nA

Range Keithley B changed to 200 pA

Range Keithley B changed to 20 nA

Range Keithley B changed to 200 pA

Range Keithley B changed to 20 nA

Range Keithley B changed to 200 pA

Range Keithley B changed to 20 nA

Range Keithley B changed to 200 pA

Range Keithley B changed to 20 nA

Range Keithley B changed to 200 nA

Range Keithley B changed to 20 nA

Range Keithley B changed to 200 nA

Range Keithley B changed to 200 pA

Range Keithley B changed to 20 nA

Range Keithley B changed to 200 pA

Range Keithley B changed to 20 nA

Range Keithley B changed to 200 pA

Range Keithley B changed to 20 nA

Range Keithley B changed to 200 pA

Range Keithley B changed to 20 nA

Range Keithley B changed to 200 pA

Range Keithley B changed to 20 nA

Range Keithley B changed to 200 pA

Range Keithley B changed to 20 nA

Instrument 2: AMMETER KEITHLEY 6517A A
Measure type: Current
range type: set range value
range value (ampere):  20 nA
Integration time:  set NPLC value
NPLC value: 10.000
Digital filter count: 2
Vsource: OFF
Output Voltage value: -0.000
Vsource range: 100 V
Trigger source: bus

Range Keithley A changed to 200 nA

Range Keithley A changed to 200 pA

Range Keithley A changed to 20 nA

Range Keithley A changed to 200 nA

Range Keithley A changed to 20 nA

Range Keithley A changed to 200 nA

Range Keithley A changed to 20 nA

Range Keithley A changed to 200 nA

Range Keithley A changed to 200 pA

Range Keithley A changed to 20 nA

Range Keithley A changed to 200 pA

Range Keithley A changed to 20 nA

Range Keithley A changed to 200 pA

Range Keithley A changed to 20 nA

Range Keithley A changed to 200 pA

Range Keithley A changed to 20 nA

Range Keithley A changed to 200 pA

Range Keithley A changed to 20 nA

Range Keithley A changed to 200 pA

Range Keithley A changed to 20 nA

Instrument 3: AMMETER KEITHLEY 6517A C 
Measure type: Current
range type: set range value
range value (ampere):  2 uA
Integration time:  set NPLC value
NPLC value: 10.000
Digital filter count: 2
Vsource: OFF
Output Voltage value: -0.000
Vsource range: 100 V
Trigger source: bus


________________________________________________________________________________

RelativeTime (msec)	Photon Energy	Var_1	Var_2	INSTR_1_Sample with Bias _(ampere ) 	INSTR_2_Monitor IM_(ampere)  	INSTR_3_Diode A3_(ampere)	I_BPM_sum (Amps)	
________________________________________________________________________________

1.23493900E+6	1.50001677E+1	3.00000000E+0	1.50000000E+1	6.90000000E-13	3.24000000E-12	-1.68000000E-10	8.92661201E-5
1.23960800E+6	1.50998507E+1	3.00000000E+0	1.50000000E+1	5.90000000E-13	3.56000000E-12	-1.47000000E-10	8.93890338E-5
1.24331000E+6	1.51999612E+1	3.00000000E+0	1.50000000E+1	8.70000000E-13	3.94000000E-12	-1.23000000E-10	8.93153446E-5
1.24722000E+6	1.53000306E+1	3.00000000E+0	1.50000000E+1	5.10000000E-13	4.29000000E-12	-1.02000000E-10	8.93455224E-5
1.25095900E+6	1.53999923E+1	3.00000000E+0	1.50000000E+1	6.40000000E-13	4.67000000E-12	-6.50000000E-11	8.92728286E-5
1.25490700E+6	1.54999729E+1	3.00000000E+0	1.50000000E+1	1.12000000E-12	5.07000000E-12	-3.70000000E-11	8.93919992E-5
1.25881600E+6	1.56000074E+1	3.00000000E+0	1.50000000E+1	4.70000000E-13	5.47000000E-12	-1.30000000E-11	8.92310666E-5
1.26250900E+6	1.56999919E+1	3.00000000E+0	1.50000000E+1	8.90000000E-13	5.86000000E-12	1.60000000E-11	8.90256541E-5
1.26642400E+6	1.58000218E+1	3.00000000E+0	1.50000000E+1	8.70000000E-13	6.23000000E-12	4.50000000E-11	8.93038051E-5
1.27036300E+6	1.58999711E+1	3.00000000E+0	1.50000000E+1	6.80000000E-13	6.64000000E-12	6.70000000E-11	8.91278314E-5
1.27410400E+6	1.59999797E+1	3.00000000E+0	1.50000000E+1	4.70000000E-13	7.00000000E-12	9.70000000E-11	8.93014984E-5
1.27805600E+6	1.61000468E+1	3.00000000E+0	1.50000000E+1	6.00000000E-13	7.39000000E-12	1.38000000E-10	8.88430224E-5
1.28172600E+6	1.61999796E+1	3.00000000E+0	1.50000000E+1	9.60000000E-13	7.80000000E-12	1.67000000E-10	8.91135173E-5
1.28565000E+6	1.63000099E+1	3.00000000E+0	1.50000000E+1	5.70000000E-13	8.23000000E-12	2.11000000E-10	8.91886639E-5
1.28959200E+6	1.64000084E+1	3.00000000E+0	1.50000000E+1	5.20000000E-13	8.68000000E-12	2.42000000E-10	8.92394709E-5
1.29331100E+6	1.64999511E+1	3.00000000E+0	1.50000000E+1	6.80000000E-13	9.15000000E-12	2.92000000E-10	8.95220208E-5
1.29722300E+6	1.65999935E+1	3.00000000E+0	1.50000000E+1	5.40000000E-13	9.63000000E-12	3.17000000E-10	8.91784566E-5
1.30121200E+6	1.67000485E+1	3.00000000E+0	1.50000000E+1	7.50000000E-13	1.01500000E-11	3.62000000E-10	8.93019097E-5
1.30481400E+6	1.67999562E+1	3.00000000E+0	1.50000000E+1	6.30000000E-13	1.06700000E-11	3.91000000E-10	8.95229268E-5
1.30859900E+6	1.69000163E+1	3.00000000E+0	1.50000000E+1	1.20000000E-12	1.12500000E-11	4.53000000E-10	8.90337514E-5
1.31231200E+6	1.70000001E+1	3.00000000E+0	1.50000000E+1	7.90000000E-13	1.18600000E-11	5.00000000E-10	8.91644316E-5
1.31609000E+6	1.70999075E+1	3.00000000E+0	1.50000000E+1	2.70000000E-13	1.25100000E-11	5.78000000E-10	8.89720248E-5
1.32061200E+6	1.72000050E+1	3.00000000E+0	1.50000000E+1	6.20000000E-13	1.32200000E-11	6.40000000E-10	8.90779810E-5
1.32422400E+6	1.73000584E+1	3.00000000E+0	1.50000000E+1	7.20000000E-13	1.39900000E-11	7.10000000E-10	8.88781087E-5
1.32800400E+6	1.74000209E+1	3.00000000E+0	1.50000000E+1	9.60000000E-13	1.48800000E-11	8.02000000E-10	8.92345535E-5
1.33171100E+6	1.74999690E+1	3.00000000E+0	1.50000000E+1	7.40000000E-13	1.58200000E-11	8.94000000E-10	8.92116355E-5
1.33550600E+6	1.76000595E+1	3.00000000E+0	1.50000000E+1	6.20000000E-13	1.69000000E-11	1.02600000E-9	8.95658749E-5
1.33929900E+6	1.76999447E+1	3.00000000E+0	1.50000000E+1	6.70000000E-13	1.81100000E-11	1.12900000E-9	8.94800740E-5
1.34287000E+6	1.77999862E+1	3.00000000E+0	1.50000000E+1	4.30000000E-13	1.95100000E-11	1.28300000E-9	8.92122792E-5
1.34666000E+6	1.79000654E+1	3.00000000E+0	1.50000000E+1	3.80000000E-13	2.10700000E-11	1.44400000E-9	8.89702069E-5
1.35042200E+6	1.79999789E+1	3.00000000E+0	1.50000000E+1	7.90000000E-13	2.28700000E-11	1.63100000E-9	8.94636440E-5
1.35399800E+6	1.81000235E+1	3.00000000E+0	1.50000000E+1	3.10000000E-13	2.48400000E-11	1.84400000E-9	8.91006844E-5
1.35777800E+6	1.81999955E+1	3.00000000E+0	1.50000000E+1	5.60000000E-13	2.70200000E-11	2.09200000E-9	8.92395782E-5
1.36135200E+6	1.82999833E+1	3.00000000E+0	1.50000000E+1	2.80000000E-13	2.94400000E-11	2.35600000E-9	8.89721649E-5
1.36511600E+6	1.83999415E+1	3.00000000E+0	1.50000000E+1	6.10000000E-13	3.20500000E-11	2.64700000E-9	8.92566340E-5
1.36890300E+6	1.85000468E+1	3.00000000E+0	1.50000000E+1	1.03000000E-12	3.48200000E-11	2.98600000E-9	8.92964052E-5
1.37247200E+6	1.86000316E+1	3.00000000E+0	1.50000000E+1	6.90000000E-13	3.78100000E-11	3.32300000E-9	8.92160582E-5
1.37627200E+6	1.86999315E+1	3.00000000E+0	1.50000000E+1	5.70000000E-13	4.09700000E-11	3.70700000E-9	8.92734545E-5
1.38006600E+6	1.87999572E+1	3.00000000E+0	1.50000000E+1	7.10000000E-13	4.42500000E-11	4.11100000E-9	8.91660499E-5
1.38368700E+6	1.89000079E+1	3.00000000E+0	1.50000000E+1	5.70000000E-13	4.77100000E-11	4.54000000E-9	8.91809689E-5
1.38748500E+6	1.90000377E+1	3.00000000E+0	1.50000000E+1	8.10000000E-13	5.14100000E-11	5.00300000E-9	8.88615446E-5
1.39108400E+6	1.90999991E+1	3.00000000E+0	1.50000000E+1	3.50000000E-13	5.53200000E-11	5.49900000E-9	8.93618809E-5
1.39490800E+6	1.91999636E+1	3.00000000E+0	1.50000000E+1	3.20000000E-13	5.95600000E-11	6.04400000E-9	8.89956580E-5
1.39870800E+6	1.93000363E+1	3.00000000E+0	1.50000000E+1	5.50000000E-13	6.41900000E-11	6.64700000E-9	8.91570019E-5
1.40218600E+6	1.93998045E+1	3.00000000E+0	1.50000000E+1	6.90000000E-13	6.93100000E-11	7.32100000E-9	8.90274273E-5
1.40587100E+6	1.95000503E+1	3.00000000E+0	1.50000000E+1	6.80000000E-13	7.50300000E-11	8.07100000E-9	8.93015521E-5
1.40968400E+6	1.96000817E+1	3.00000000E+0	1.50000000E+1	7.30000000E-13	8.09100000E-11	8.85600000E-9	8.95313012E-5
1.41329000E+6	1.97000347E+1	3.00000000E+0	1.50000000E+1	8.00000000E-13	8.71400000E-11	9.70300000E-9	8.97418904E-5
1.41708100E+6	1.97999553E+1	3.00000000E+0	1.50000000E+1	4.30000000E-13	9.36400000E-11	1.05840000E-8	8.93338310E-5
1.42062600E+6	1.98998590E+1	3.00000000E+0	1.50000000E+1	5.60000000E-13	1.00310000E-10	1.15140000E-8	8.97521066E-5
1.42428000E+6	1.99999916E+1	3.00000000E+0	1.50000000E+1	6.10000000E-13	1.07020000E-10	1.24690000E-8	8.93571155E-5
1.42787500E+6	2.01001796E+1	3.00000000E+0	1.50000000E+1	8.00000000E-13	1.13770000E-10	1.34440000E-8	8.96001029E-5
1.43135100E+6	2.01998425E+1	3.00000000E+0	1.50000000E+1	4.80000000E-13	1.20470000E-10	1.44300000E-8	8.92990010E-5
1.43482600E+6	2.03000273E+1	3.00000000E+0	1.50000000E+1	3.80000000E-13	1.27070000E-10	1.54220000E-8	8.94377904E-5
1.43828000E+6	2.03999865E+1	3.00000000E+0	1.50000000E+1	9.10000000E-13	1.33600000E-10	1.64030000E-8	8.92924207E-5
1.44173000E+6	2.05000422E+1	3.00000000E+0	1.50000000E+1	9.80000000E-13	1.40060000E-10	1.74100000E-8	8.94499736E-5
1.44535100E+6	2.06000438E+1	3.00000000E+0	1.50000000E+1	5.40000000E-13	1.46410000E-10	1.84080000E-8	8.95692217E-5
1.44885000E+6	2.06999755E+1	3.00000000E+0	1.50000000E+1	4.10000000E-13	1.52770000E-10	1.94280000E-8	8.93936264E-5
1.45232800E+6	2.07999622E+1	3.00000000E+0	1.50000000E+1	7.70000000E-13	1.59050000E-10	2.04560000E-8	8.95759361E-5
1.45582900E+6	2.09000629E+1	3.00000000E+0	1.50000000E+1	6.80000000E-13	1.65320000E-10	2.15060000E-8	8.93144327E-5
1.45929200E+6	2.10000506E+1	3.00000000E+0	1.50000000E+1	4.20000000E-13	1.71450000E-10	2.25440000E-8	8.94779670E-5
1.46274600E+6	2.11000537E+1	3.00000000E+0	1.50000000E+1	5.90000000E-13	1.77520000E-10	2.35860000E-8	8.94308197E-5
1.46624300E+6	2.11998385E+1	3.00000000E+0	1.50000000E+1	6.20000000E-13	1.83450000E-10	2.46470000E-8	8.95017284E-5
1.46970000E+6	2.13000897E+1	3.00000000E+0	1.50000000E+1	1.07000000E-12	1.89260000E-10	2.56800000E-8	8.97045779E-5
1.47315500E+6	2.13999463E+1	3.00000000E+0	1.50000000E+1	8.50000000E-13	1.94870000E-10	2.67090000E-8	8.92990249E-5
1.47662400E+6	2.15000637E+1	3.00000000E+0	1.50000000E+1	4.80000000E-13	2.00380000E-10	2.77580000E-8	8.93422412E-5
1.48009200E+6	2.16000929E+1	3.00000000E+0	1.50000000E+1	6.10000000E-13	2.05720000E-10	2.87860000E-8	8.96282899E-5
1.48358100E+6	2.16999028E+1	3.00000000E+0	1.50000000E+1	9.20000000E-13	2.10950000E-10	2.98180000E-8	8.93724280E-5
1.48703100E+6	2.17999404E+1	3.00000000E+0	1.50000000E+1	9.20000000E-13	2.16050000E-10	3.08420000E-8	8.95660120E-5
1.49047700E+6	2.19001600E+1	3.00000000E+0	1.50000000E+1	8.10000000E-13	2.20820000E-10	3.18370000E-8	8.91750055E-5
1.49391700E+6	2.19999210E+1	3.00000000E+0	1.50000000E+1	7.10000000E-13	2.25490000E-10	3.28140000E-8	8.97028672E-5
1.49735900E+6	2.21001162E+1	3.00000000E+0	1.50000000E+1	6.70000000E-13	2.29810000E-10	3.37720000E-8	8.93880831E-5
1.50158000E+6	2.21999394E+1	3.00000000E+0	1.50000000E+1	6.10000000E-13	2.33710000E-10	3.46690000E-8	8.91077029E-5
1.50503600E+6	2.23000590E+1	3.00000000E+0	1.50000000E+1	9.20000000E-13	2.37170000E-10	3.55110000E-8	8.93869447E-5
1.50849600E+6	2.23999786E+1	3.00000000E+0	1.50000000E+1	5.90000000E-13	2.40070000E-10	3.62610000E-8	8.95173835E-5
1.51196700E+6	2.24999290E+1	3.00000000E+0	1.50000000E+1	6.20000000E-13	2.42340000E-10	3.69340000E-8	8.94364970E-5
1.51543700E+6	2.26000241E+1	3.00000000E+0	1.50000000E+1	6.50000000E-13	2.43750000E-10	3.74820000E-8	8.91725170E-5
1.51892400E+6	2.27000453E+1	3.00000000E+0	1.50000000E+1	6.60000000E-13	2.44310000E-10	3.78820000E-8	8.96850365E-5
1.52239000E+6	2.28000212E+1	3.00000000E+0	1.50000000E+1	4.00000000E-13	2.43750000E-10	3.81110000E-8	8.94427853E-5
1.52585800E+6	2.28999817E+1	3.00000000E+0	1.50000000E+1	2.70000000E-13	2.41780000E-10	3.81240000E-8	8.94421207E-5
1.52931100E+6	2.30000445E+1	3.00000000E+0	1.50000000E+1	4.30000000E-13	2.38090000E-10	3.78410000E-8	8.93669712E-5
1.53275200E+6	2.30998955E+1	3.00000000E+0	1.50000000E+1	5.50000000E-13	2.31870000E-10	3.71390000E-8	8.91736316E-5
1.53621200E+6	2.32000895E+1	3.00000000E+0	1.50000000E+1	6.30000000E-13	2.21970000E-10	3.58390000E-8	8.94599187E-5
1.53971300E+6	2.33000030E+1	3.00000000E+0	1.50000000E+1	5.90000000E-13	2.05730000E-10	3.34600000E-8	8.93559354E-5
1.54314400E+6	2.33999307E+1	3.00000000E+0	1.50000000E+1	6.00000000E-13	1.76590000E-10	2.89100000E-8	8.91209977E-5
1.54661400E+6	2.35000422E+1	3.00000000E+0	1.50000000E+1	8.00000000E-13	1.22280000E-10	2.01530000E-8	8.92476129E-5
1.55014800E+6	2.35999673E+1	3.00000000E+0	1.50000000E+1	5.30000000E-13	5.92500000E-11	9.77600000E-9	8.93039869E-5
1.55360600E+6	2.37000115E+1	3.00000000E+0	1.50000000E+1	7.60000000E-13	2.93700000E-11	4.80600000E-9	8.96130490E-5
1.55708300E+6	2.37999817E+1	3.00000000E+0	1.50000000E+1	7.70000000E-13	2.14800000E-11	3.48300000E-9	8.92175244E-5
1.56040700E+6	2.38997720E+1	3.00000000E+0	1.50000000E+1	8.10000000E-13	1.98200000E-11	3.21100000E-9	8.92531978E-5
1.56378100E+6	2.39999790E+1	3.00000000E+0	1.50000000E+1	5.00000000E-13	1.95900000E-11	3.18500000E-9	8.93730807E-5
1.56710300E+6	2.41001756E+1	3.00000000E+0	1.50000000E+1	7.50000000E-13	1.96800000E-11	3.20100000E-9	8.94624638E-5
1.57037300E+6	2.41999680E+1	3.00000000E+0	1.50000000E+1	4.00000000E-13	1.98000000E-11	3.24200000E-9	8.93702077E-5
1.57381700E+6	2.43001560E+1	3.00000000E+0	1.50000000E+1	4.50000000E-13	1.97700000E-11	3.25300000E-9	8.93516230E-5
1.57712600E+6	2.44000094E+1	3.00000000E+0	1.50000000E+1	8.20000000E-13	1.93900000E-11	3.20100000E-9	8.93645214E-5
1.58058900E+6	2.45000492E+1	3.00000000E+0	1.50000000E+1	9.70000000E-13	1.79100000E-11	2.95400000E-9	8.91850727E-5
1.58392700E+6	2.45998248E+1	3.00000000E+0	1.50000000E+1	8.30000000E-13	1.42000000E-11	2.31500000E-9	8.91703831E-5
1.58728400E+6	2.46999677E+1	3.00000000E+0	1.50000000E+1	7.20000000E-13	1.00200000E-11	1.58000000E-9	8.93684315E-5
1.59059400E+6	2.48001252E+1	3.00000000E+0	1.50000000E+1	5.90000000E-13	8.11000000E-12	1.22900000E-9	8.92114418E-5
1.59391300E+6	2.48998823E+1	3.00000000E+0	1.50000000E+1	8.20000000E-13	7.48000000E-12	1.12000000E-9	8.93683480E-5
1.59724700E+6	2.49999344E+1	3.00000000E+0	1.50000000E+1	6.10000000E-13	7.25000000E-12	1.09300000E-9	8.94316869E-5
