G:\BEAR_storage\User_Experiments\20220108_arneodo\file(1)_Region 6__0016.txt
Ring Energy (GeV): 2
Lifetime (hours): 16.9822
Scan beginning: 8/1/2022	5:34:18 PM
Ring current (mA): 308.97
Source position: x (mm): -0.005 x' (mrad): 0.004 y (mm): -0.004 y' (mrad): 0
Scan end: 8/1/2022	5:43:09 PM
Ring current (mA): 308.62
Source position: x (mm): -0.005 x' (mrad): 0.005 y (mm): -0.002 y' (mrad): 0.001

SCAN TYPE: PHOTON ENERGY VS VAR_1 VS VAR_2

FILE INFO: FILE INFO:

SCAN PARAMETERS
waiting time (ms): 0
Number of scans: 1
Current scan number: 1
DARK OFF 
PREDARK OFF 

SCAN PARAMETERS
Regions configuration: 
number of regions: 7
Mirror grating scan: on
Timed acquisition: off
Region 1:
Initial energy (eV): 3.000000
Final energy (eV): 4.500000
Delta energy (eV): 1.000000
Deviation angle choice: Degrees: 
Deviation angle (°): NaN
B270 window
GNIM channel
range keithley B 200 pA
range keithley C 2 uA
range keithley A 200 pA
Var_1: XM3.000000
Var_2: YM15.000000
Bias CEM (V): 0.000000
Bias Keithley B (V): -30.000000
Name region: 
Region 2:
Initial energy (eV): 4.000000
Final energy (eV): 8.000000
Delta energy (eV): 1.000000
Deviation angle choice: Degrees: 
Deviation angle (°): NaN
SiO2 window
GNIM channel
range keithley B 200 pA
range keithley C 2 uA
range keithley A 200 pA
Var_1: XM3.000000
Var_2: YM15.000000
Bias CEM (V): 0.000000
Bias Keithley B (V): -30.000000
Name region: 
Region 3:
Initial energy (eV): 7.000000
Final energy (eV): 12.000000
Delta energy (eV): 1.000000
Deviation angle choice: Degrees: 
Deviation angle (°): NaN
filter LiF window
GNIM channel
range keithley B 200 pA
range keithley C 2 uA
range keithley A 200 pA
Var_1: XM3.000000
Var_2: YM15.000000
Bias CEM (V): 0.000000
Bias Keithley B (V): -30.000000
Name region: 
Region 4:
Initial energy (eV): 11.000000
Final energy (eV): 18.000000
Delta energy (eV): 1.000000
Deviation angle choice: Degrees: 
Deviation angle (°): NaN
In filter
GNIM channel
range keithley B 200 pA
range keithley C 2 uA
range keithley A 200 pA
Var_1: XM3.000000
Var_2: YM15.000000
Bias CEM (V): 0.000000
Bias Keithley B (V): -30.000000
Name region: 
Region 5:
Initial energy (eV): 15.000000
Final energy (eV): 25.000000
Delta energy (eV): 1.000000
Deviation angle choice: Degrees: 
Deviation angle (°): NaN
Sn filter
GNIM channel
range keithley B 20 nA
range keithley C 2 uA
range keithley A 20 nA
Var_1: XM3.000000
Var_2: YM15.000000
Bias CEM (V): 0.000000
Bias Keithley B (V): -30.000000
Name region: 
Region 6:
Initial energy (eV): 23.000000
Final energy (eV): 45.000000
Delta energy (eV): 1.000000
Deviation angle choice: Degrees: 
Deviation angle (°): NaN
Full Beam
GNIM channel
range keithley B 20 nA
range keithley C 2 uA
range keithley A 20 nA
Var_1: XM3.000000
Var_2: YM15.000000
Bias CEM (V): 0.000000
Bias Keithley B (V): -30.000000
Name region: 
Region 7:
Initial energy (eV): 23.000000
Final energy (eV): 45.000000
Delta energy (eV): 1.000000
Deviation angle choice: Degrees: 
Deviation angle (°): NaN
Al filter
GNIM channel
range keithley B 20 nA
range keithley C 2 uA
range keithley A 20 nA
Var_1: XM3.000000
Var_2: YM15.000000
Bias CEM (V): 0.000000
Bias Keithley B (V): -30.000000
Name region: 

BEAR MONOCHROMATOR CONFIGURATION: 
Current Grating Position:     200055.60
Current Mirror Position: 9999.8
Current Grating: GNIM
P2 phiz position:  -0.0195
Mono axis position: 73.5000
Current Photon Energy (eV): 44.998
Current Deviation Angle: 29.905
Vertical Exit Slits (um): 450.000
Exit slit y axis position: 2.2375
Horizontal Exit Slits (um):  890.000
Exit slit z axis position: 1.9250
Mitutoyo position (mm): 

Dose on sample (mJ/cm^2): NaN

ENERGY CALIBRATION:
offset grating G1200: yes
Delta 0 order G1200:  -500.0
offset grating G1800: not
Delta 0 order G1800:  0.0
offset grating GNIM: not
Delta 0 order GNIM:  0.0
ZERO ORDER POSITIONS:
Grating G1200: Mirror position:  4938.0
Grating position: -105355.0
Grating G1800: 
Mirror position:  4938.0
Grating position: -106345.0
Grating GNIM: 
Mirror position:  10000.0
Grating position: 227300.0

Initial filter: Al filter

EXPERIMENTAL CHAMBER CONFIGURATION: 
PsiC (deg):   0.036413
Phi Analyzer (degrees): -0.009471
Theta Manipulator (degrees): -45.000040
Theta Analyzer (degrees): -0.000455
PhiM (degrees): -0.006155
XM (mm): 2.999938
YM (mm): 14.999863
ZM (mm): (Warning: for kinetic energy scans, 
this parameter is given in the scan settings) 
-8.300075
TiltM (°): -0.000275

COIL VALUES
Ix (amps):2.950
Iy (amps): 6.790
Iz (amps): 14.440

POLARIZATION SELECTOR CONFIGURATION:
Psi1 (rad): -0.001665535
Psi2 (rad): 0.001417093
Z min position (mm): 46.599650
DZ position (mm): 18.599100
Zmin 0 (mm): 66.500000
DZ0 (mm): 53.000000

BEAM SELECTOR CONFIGURATION:
Zmin position (mm): 158.000000
DZ position (mm): 264.000000
Y+ position (mm): 291.700000
Y- position (mm): NaN

CHANNEL ELECTRON MULTIPLIER CONFIGURATION:
CEM configured: OFF
Bias CEM: 0.000000

FLUORESCENCE DETECTOR CONFIGURATION:
Not configured

LUMINESCENCE MONOCHROMATOR CONFIGURATION:
Optical fiber position (mm): 0.000000
Optical fiber Switch inside: OFF
Optical fiber Switch outside: ON
Monochromator wavelength (A): 229000.000000
Limit Switches: OFF

I0 MONITOR PARAMETERS:
I0 detector position(mm): 1.924999E+2
Lower switch: OFF
Upper switch: OFF
Valve status:open

PRESSURE PARAMETERS:
Monitor chamber pressure (mbar): 1.438e-09
Experimental chamber pressure -ION GAUGE-(mbar): 0.000000E+0

XMCD PARAMETERS:
Xmcd OFF
Xmcd Direction -
Xmcd current (A): 0.000000

Gated scan on
Shutter open time (ms): 632833797
Shutter aperture time (ms): -2237887

Instrument 1: AMMETER KEITHLEY 6517A B
Measure type: Current
range type: set range value
range value (ampere):  200 pA
Integration time:  set NPLC value
NPLC value: 10.000
Digital filter count: 2
SAMPLE BIAS (V): -30.000
Vsource: ON
Output Voltage value: 30.000
Vsource range: 1000 V

Range Keithley B changed to 20 nA

Range Keithley B changed to 200 pA

Range Keithley B changed to 20 nA

Range Keithley B changed to 200 pA

Range Keithley B changed to 20 nA

Range Keithley B changed to 200 pA

Range Keithley B changed to 20 nA

Range Keithley B changed to 200 pA

Range Keithley B changed to 20 nA

Range Keithley B changed to 200 nA

Range Keithley B changed to 20 nA

Range Keithley B changed to 200 nA

Range Keithley B changed to 200 pA

Range Keithley B changed to 20 nA

Range Keithley B changed to 200 pA

Range Keithley B changed to 20 nA

Range Keithley B changed to 200 pA

Range Keithley B changed to 20 nA

Range Keithley B changed to 200 pA

Range Keithley B changed to 20 nA

Range Keithley B changed to 200 pA

Range Keithley B changed to 20 nA

Instrument 2: AMMETER KEITHLEY 6517A A
Measure type: Current
range type: set range value
range value (ampere):  20 nA
Integration time:  set NPLC value
NPLC value: 10.000
Digital filter count: 2
Vsource: OFF
Output Voltage value: -0.000
Vsource range: 100 V
Trigger source: bus

Range Keithley A changed to 200 nA

Range Keithley A changed to 200 pA

Range Keithley A changed to 20 nA

Range Keithley A changed to 200 nA

Range Keithley A changed to 20 nA

Range Keithley A changed to 200 nA

Range Keithley A changed to 20 nA

Range Keithley A changed to 200 nA

Range Keithley A changed to 200 pA

Range Keithley A changed to 20 nA

Range Keithley A changed to 200 pA

Range Keithley A changed to 20 nA

Range Keithley A changed to 200 pA

Range Keithley A changed to 20 nA

Range Keithley A changed to 200 pA

Range Keithley A changed to 20 nA

Range Keithley A changed to 200 pA

Range Keithley A changed to 20 nA

Instrument 3: AMMETER KEITHLEY 6517A C 
Measure type: Current
range type: set range value
range value (ampere):  2 uA
Integration time:  set NPLC value
NPLC value: 10.000
Digital filter count: 2
Vsource: OFF
Output Voltage value: -0.000
Vsource range: 100 V
Trigger source: bus


________________________________________________________________________________

RelativeTime (msec)	Photon Energy	Var_1	Var_2	INSTR_1_Sample with Bias _(ampere ) 	INSTR_2_Monitor IM_(ampere)  	INSTR_3_Diode A3_(ampere)	I_BPM_sum (Amps)	
________________________________________________________________________________

4.07001000E+5	2.30000877E+1	3.00000000E+0	1.50000000E+1	6.40000000E-13	1.22380000E-9	1.92122000E-7	8.92489242E-5
4.13942000E+5	2.40000261E+1	3.00000000E+0	1.50000000E+1	7.90000000E-13	1.12114000E-9	1.89066000E-7	8.89398383E-5
4.19577000E+5	2.49999344E+1	3.00000000E+0	1.50000000E+1	5.50000000E-13	9.33250000E-10	1.66569000E-7	8.91494559E-5
4.24639000E+5	2.60001583E+1	3.00000000E+0	1.50000000E+1	7.70000000E-13	8.30180000E-10	1.55486000E-7	8.90876638E-5
4.29719000E+5	2.69999804E+1	3.00000000E+0	1.50000000E+1	5.60000000E-13	7.66080000E-10	1.49414000E-7	8.92732607E-5
4.34628000E+5	2.79998529E+1	3.00000000E+0	1.50000000E+1	8.40000000E-13	6.98800000E-10	1.40775000E-7	8.92245339E-5
4.39622000E+5	2.89999415E+1	3.00000000E+0	1.50000000E+1	6.00000000E-13	7.46820000E-10	1.55048000E-7	8.90020387E-5
4.44388000E+5	3.00002474E+1	3.00000000E+0	1.50000000E+1	5.50000000E-13	9.28550000E-10	1.98573000E-7	8.92477887E-5
4.49208000E+5	3.10002446E+1	3.00000000E+0	1.50000000E+1	3.80000000E-13	1.01393000E-9	2.21862000E-7	8.92669635E-5
4.53870000E+5	3.19997755E+1	3.00000000E+0	1.50000000E+1	7.60000000E-13	8.78450000E-10	1.94587000E-7	8.91012030E-5
4.58574000E+5	3.30002852E+1	3.00000000E+0	1.50000000E+1	5.90000000E-13	6.44220000E-10	1.43656000E-7	8.88206260E-5
4.63048000E+5	3.40000760E+1	3.00000000E+0	1.50000000E+1	3.50000000E-13	4.59940000E-10	1.03233000E-7	8.90726464E-5
4.67592000E+5	3.49994680E+1	3.00000000E+0	1.50000000E+1	5.50000000E-13	3.36510000E-10	7.60840000E-8	8.93505382E-5
4.71986000E+5	3.60003077E+1	3.00000000E+0	1.50000000E+1	7.60000000E-13	2.54400000E-10	5.79560000E-8	8.90511738E-5
4.76204000E+5	3.70007988E+1	3.00000000E+0	1.50000000E+1	3.10000000E-13	2.01470000E-10	4.62820000E-8	8.93012094E-5
4.80542000E+5	3.80002292E+1	3.00000000E+0	1.50000000E+1	6.50000000E-13	1.63340000E-10	3.78220000E-8	8.91962545E-5
4.84743000E+5	3.89997655E+1	3.00000000E+0	1.50000000E+1	7.30000000E-13	1.32070000E-10	3.07720000E-8	8.93875854E-5
4.88998000E+5	3.99993692E+1	3.00000000E+0	1.50000000E+1	8.20000000E-13	1.05090000E-10	2.46520000E-8	8.92538594E-5
4.93051000E+5	4.10001260E+1	3.00000000E+0	1.50000000E+1	7.70000000E-13	8.31100000E-11	1.95720000E-8	8.94806432E-5
4.97876000E+5	4.20005774E+1	3.00000000E+0	1.50000000E+1	7.40000000E-13	6.67600000E-11	1.57910000E-8	8.90565561E-5
5.01906000E+5	4.29994935E+1	3.00000000E+0	1.50000000E+1	3.90000000E-13	5.54200000E-11	1.32000000E-8	8.93229382E-5
5.05951000E+5	4.40005229E+1	3.00000000E+0	1.50000000E+1	8.20000000E-13	4.65600000E-11	1.11130000E-8	8.95197886E-5
5.10155000E+5	4.50000737E+1	3.00000000E+0	1.50000000E+1	4.20000000E-13	3.77900000E-11	9.03200000E-9	8.93627005E-5
