G:\BEAR_storage\User_Experiments\20220317_arneodo\Tmp\file(1)_tmp_0038.txt
Ring Energy (GeV): 2
Lifetime (hours): 0
Scan beginning: 3/18/2022	6:06:32 PM
Ring current (mA): 0
Source position: x (mm): 1.535 x' (mrad): -0.647 y (mm): 0.31 y' (mrad): 0.391
Scan end: 3/18/2022	6:09:50 PM
Ring current (mA): 0
Source position: x (mm): 1.535 x' (mrad): -0.647 y (mm): 0.31 y' (mrad): 0.391

SCAN TYPE: PHOTON ENERGY VS VAR_1 VS VAR_2

FILE INFO: FILE INFO:

SCAN PARAMETERS
waiting time (ms): 0
Number of scans: 1
Current scan number: 1
DARK OFF 
PREDARK OFF 

SCAN PARAMETERS
Regions configuration: 
number of regions: 6
Mirror grating scan: on
Timed acquisition: off
Region 1:
Initial energy (eV): 40.000000
Final energy (eV): 72.000000
Delta energy (eV): 1.000000
Deviation angle choice: Higher order rejection
Deviation angle (°): NaN
Al filter
G1200 channel
range keithley B 20 nA
range keithley C 200 nA
range keithley A 20 nA
Var_1: PsiC 0.000000
Var_2: PhiM0.000000
Bias CEM (V): 0.000000
Bias Keithley B (V): -30.000000
Name region: 
Region 2:
Initial energy (eV): 70.000000
Final energy (eV): 102.000000
Delta energy (eV): 1.000000
Deviation angle choice: Higher order rejection
Deviation angle (°): NaN
Si filter
G1200 channel
range keithley B 20 nA
range keithley C 200 nA
range keithley A 20 nA
Var_1: PsiC 0.000000
Var_2: PhiM0.000000
Bias CEM (V): 0.000000
Bias Keithley B (V): -30.000000
Name region: 
Region 3:
Initial energy (eV): 98.000000
Final energy (eV): 260.000000
Delta energy (eV): 1.000000
Deviation angle choice: Higher order rejection
Deviation angle (°): NaN
Full Beam
G1200 channel
range keithley B 20 nA
range keithley C 200 nA
range keithley A 200 nA
Var_1: PsiC 0.000000
Var_2: PhiM0.000000
Bias CEM (V): 0.000000
Bias Keithley B (V): -30.000000
Name region: 
Region 4:
Initial energy (eV): 255.000000
Final energy (eV): 320.000000
Delta energy (eV): 1.000000
Deviation angle choice: Higher order rejection
Deviation angle (°): NaN
filter Ag 0.6 um
G1200 channel
range keithley B 200 pA
range keithley C 200 nA
range keithley A 200 pA
Var_1: PsiC 0.000000
Var_2: PhiM0.000000
Bias CEM (V): 0.000000
Bias Keithley B (V): -30.000000
Name region: 
Region 5:
Initial energy (eV): 315.000000
Final energy (eV): 1200.000000
Delta energy (eV): 5.000000
Deviation angle choice: Higher order rejection
Deviation angle (°): NaN
Full Beam
G1200 channel
range keithley B 20 nA
range keithley C 200 nA
range keithley A 20 nA
Var_1: PsiC 0.000000
Var_2: PhiM0.000000
Bias CEM (V): 0.000000
Bias Keithley B (V): -30.000000
Name region: 
Region 6:
Initial energy (eV): 1190.000000
Final energy (eV): 1500.000000
Delta energy (eV): 5.000000
Deviation angle choice: Higher order rejection
Deviation angle (°): NaN
filter Ag 0.6 um
G1200 channel
range keithley B 200 pA
range keithley C 200 nA
range keithley A 200 pA
Var_1: PsiC 0.000000
Var_2: PhiM0.000000
Bias CEM (V): 0.000000
Bias Keithley B (V): -30.000000
Name region: 

BEAR MONOCHROMATOR CONFIGURATION: 
Current Grating Position:     -181699.20
Current Mirror Position: 2556.9
Current Grating: G1200
P2 phiz position:  0.0000
Mono axis position: 25.0000
Current Photon Energy (eV): 70.000
Current Deviation Angle: 155.000
Vertical Exit Slits (um): 450.000
Exit slit y axis position: 2.2375
Horizontal Exit Slits (um):  889.156
Exit slit z axis position: 1.9229
Mitutoyo position (mm): 

Dose on sample (mJ/cm^2): NaN

ENERGY CALIBRATION:
offset grating G1200: yes
Delta 0 order G1200:  -800.0
offset grating G1800: not
Delta 0 order G1800:  0.0
offset grating GNIM: not
Delta 0 order GNIM:  0.0
ZERO ORDER POSITIONS:
Grating G1200: Mirror position:  4938.0
Grating position: -105355.0
Grating G1800: 
Mirror position:  4938.0
Grating position: -106345.0
Grating GNIM: 
Mirror position:  10000.0
Grating position: 227300.0

Initial filter: Si filter

EXPERIMENTAL CHAMBER CONFIGURATION: 
PsiC (deg):   -0.000186
Phi Analyzer (degrees): 89.992308
Theta Manipulator (degrees): -44.000040
Theta Analyzer (degrees): -135.001468
PhiM (degrees): -0.002051
XM (mm): 0.000750
YM (mm): 19.932987
ZM (mm): (Warning: for kinetic energy scans, 
this parameter is given in the scan settings) 
-6.601438
TiltM (°): 0.000138

ELECTRON ANALYZER CONFIGURATION: 
Current Kinetik energy (eV): 35.0
Mode: DE = COST
Pass Energy (eV):  50.000
CEM: ON
Bias Front-Back CEM (V): 3499.561
Bias Back-Collector CEM (V): 100.874
Bias Retard-Front CEM: 100.087COIL VALUES
Ix (amps):2.820
Iy (amps): 6.789
Iz (amps): 37.337

POLARIZATION SELECTOR CONFIGURATION:
Psi1 (rad): -0.001665535
Psi2 (rad): 0.001417093
Z min position (mm): 46.599650
DZ position (mm): 18.599100
Zmin 0 (mm): 66.500000
DZ0 (mm): 53.000000

BEAM SELECTOR CONFIGURATION:
Zmin position (mm): NaN
DZ position (mm): NaN
Y+ position (mm): NaN
Y- position (mm): NaN

CHANNEL ELECTRON MULTIPLIER CONFIGURATION:
CEM configured: OFF
Bias CEM: 0.000000

FLUORESCENCE DETECTOR CONFIGURATION:
Not configured

LUMINESCENCE MONOCHROMATOR CONFIGURATION:
Optical fiber position (mm): 0.000000
Optical fiber Switch inside: OFF
Optical fiber Switch outside: ON
Monochromator wavelength (A): 0.000000
Limit Switches: ON

I0 MONITOR PARAMETERS:
I0 detector position(mm): -0.000000E+0
Lower switch: OFF
Upper switch: OFF
Valve status:open

PRESSURE PARAMETERS:
Monitor chamber pressure (mbar): 9.543e-10
Experimental chamber pressure -ION GAUGE-(mbar): 0.000000E+0

XMCD PARAMETERS:
Xmcd OFF
Xmcd Direction -
Xmcd current (A): 0.000000

Gated scan off

Instrument 1: AMMETER KEITHLEY 6517A B
Measure type: Current
range type: set range value
range value (ampere):  200 pA
Integration time:  set NPLC value
NPLC value: 10.000
Digital filter count: 2
SAMPLE BIAS (V): -30.000
Vsource: ON
Output Voltage value: 30.000
Vsource range: 1000 V

Range Keithley B changed to 20 nA

Range Keithley B changed to 200 pA

Range Keithley B changed to 20 nA

Range Keithley B changed to 200 pA

Range Keithley B changed to 20 nA

Range Keithley B changed to 200 pA

Range Keithley B changed to 20 nA

Range Keithley B changed to 200 nA

Range Keithley B changed to 200 pA

Range Keithley B changed to 20 nA

Range Keithley B changed to 200 pA

Range Keithley B changed to 20 nA

Range Keithley B changed to 200 pA

Range Keithley B changed to 20 nA

Range Keithley B changed to 200 pA

Range Keithley B changed to 20 nA

Range Keithley B changed to 200 pA

Range Keithley B changed to 20 nA

Instrument 2: AMMETER KEITHLEY 6517A A
Measure type: Current
range type: set range value
range value (ampere):  200 nA
Integration time:  set NPLC value
NPLC value: 10.000
Digital filter count: 2
Vsource: OFF
Output Voltage value: -0.000
Vsource range: 100 V
Trigger source: bus

Range Keithley A changed to 20 nA

Range Keithley A changed to 200 nA

Range Keithley A changed to 200 pA

Range Keithley A changed to 20 nA

Range Keithley A changed to 200 pA

Range Keithley A changed to 20 nA

Range Keithley A changed to 200 nA

Range Keithley A changed to 200 pA

Range Keithley A changed to 20 nA

Range Keithley A changed to 200 pA

Range Keithley A changed to 20 nA

Range Keithley A changed to 200 nA

Range Keithley A changed to 200 pA

Range Keithley A changed to 20 nA

Range Keithley A changed to 200 pA

Range Keithley A changed to 20 nA

Range Keithley A changed to 200 pA

Range Keithley A changed to 20 nA

Range Keithley A changed to 200 pA

Range Keithley A changed to 20 nA

Range Keithley A changed to 200 pA

Range Keithley A changed to 20 nA

Range Keithley A changed to 200 nA

Range Keithley A changed to 200 pA

Range Keithley A changed to 20 nA

Range Keithley A changed to 200 pA

Range Keithley A changed to 20 nA

Range Keithley A changed to 200 nA

Range Keithley A changed to 200 pA

Range Keithley A changed to 20 nA

Range Keithley A changed to 200 nA

Range Keithley A changed to 200 pA

Range Keithley A changed to 20 nA

Range Keithley A changed to 200 pA

Range Keithley A changed to 20 nA

Range Keithley A changed to 200 pA

Range Keithley A changed to 20 nA

Range Keithley A changed to 200 nA

Range Keithley A changed to 200 pA

Range Keithley A changed to 20 nA

Range Keithley A changed to 200 pA

Range Keithley A changed to 20 nA

Instrument 3: AMMETER KEITHLEY 6517A C 
Measure type: Current
range type: set range value
range value (ampere):  20 uA
Integration time:  set NPLC value
NPLC value: 10.000
Digital filter count: 2
Vsource: OFF
Output Voltage value: -0.000
Vsource range: 100 V
Trigger source: bus


Range Keithley C changed to 200 nA


________________________________________________________________________________

RelativeTime (msec)	Photon Energy	Var_1	Var_2	INSTR_1_Sample with Bias _(ampere ) 	INSTR_2_Monitor IM_(ampere)  	INSTR_3_Diode A3_(ampere)	I_BPM_sum (Amps)	
________________________________________________________________________________

6.93300000E+3	3.99998128E+1	0.00000000E+0	0.00000000E+0	-2.70000000E-13	6.20000000E-13	-1.51000000E-11	-1.90812968E-6
1.24690000E+4	4.09998833E+1	0.00000000E+0	0.00000000E+0	-3.00000000E-13	6.70000000E-13	-1.54000000E-11	-1.88649915E-6
1.65870000E+4	4.19998748E+1	0.00000000E+0	0.00000000E+0	-1.50000000E-13	6.10000000E-13	-1.46000000E-11	-1.89281129E-6
2.07500000E+4	4.30000736E+1	0.00000000E+0	0.00000000E+0	-2.20000000E-13	6.60000000E-13	-1.60000000E-11	-1.89126156E-6
2.48300000E+4	4.39999194E+1	0.00000000E+0	0.00000000E+0	-3.10000000E-13	6.10000000E-13	-1.45000000E-11	-1.89944528E-6
2.89440000E+4	4.49999541E+1	0.00000000E+0	0.00000000E+0	-1.40000000E-13	6.60000000E-13	-1.39000000E-11	-1.87104367E-6
3.29520000E+4	4.59997279E+1	0.00000000E+0	0.00000000E+0	-3.30000000E-13	6.00000000E-13	-1.53000000E-11	-1.89049266E-6
3.69230000E+4	4.70001607E+1	0.00000000E+0	0.00000000E+0	-3.60000000E-13	6.30000000E-13	-1.39000000E-11	-1.89712368E-6
4.08970000E+4	4.79999656E+1	0.00000000E+0	0.00000000E+0	-2.60000000E-13	6.00000000E-13	-1.45000000E-11	-1.89007543E-6
4.47370000E+4	4.89998550E+1	0.00000000E+0	0.00000000E+0	-6.00000000E-14	6.40000000E-13	-1.95000000E-11	-1.85771309E-6
4.85930000E+4	5.00000335E+1	0.00000000E+0	0.00000000E+0	-1.90000000E-13	6.50000000E-13	-1.15000000E-11	-1.87863134E-6
5.24510000E+4	5.09999851E+1	0.00000000E+0	0.00000000E+0	-3.70000000E-13	6.50000000E-13	-1.30000000E-11	-1.89401232E-6
5.62810000E+4	5.19999552E+1	0.00000000E+0	0.00000000E+0	-2.20000000E-13	5.80000000E-13	-1.20000000E-11	-1.86349176E-6
6.00260000E+4	5.29997070E+1	0.00000000E+0	0.00000000E+0	2.00000000E-13	5.80000000E-13	-1.76000000E-11	-1.89071022E-6
6.38830000E+4	5.40003007E+1	0.00000000E+0	0.00000000E+0	-8.00000000E-14	6.40000000E-13	-1.53000000E-11	-1.87527858E-6
6.76160000E+4	5.49999726E+1	0.00000000E+0	0.00000000E+0	-1.60000000E-13	6.30000000E-13	-1.62000000E-11	-1.88676439E-6
7.13070000E+4	5.59998349E+1	0.00000000E+0	0.00000000E+0	-4.20000000E-13	6.00000000E-13	-1.53000000E-11	-1.89113639E-6
7.50690000E+4	5.69999843E+1	0.00000000E+0	0.00000000E+0	-5.10000000E-13	6.60000000E-13	-1.43000000E-11	-1.87696539E-6
7.88000000E+4	5.79998436E+1	0.00000000E+0	0.00000000E+0	-7.70000000E-13	6.40000000E-13	-1.68000000E-11	-1.88734256E-6
8.24030000E+4	5.89996481E+1	0.00000000E+0	0.00000000E+0	-4.40000000E-13	6.60000000E-13	-1.36000000E-11	-1.88732170E-6
8.59680000E+4	6.00000302E+1	0.00000000E+0	0.00000000E+0	0.00000000E+0	6.20000000E-13	-1.40000000E-11	-1.89256095E-6
8.95500000E+4	6.10002929E+1	0.00000000E+0	0.00000000E+0	-4.20000000E-13	6.20000000E-13	-1.67000000E-11	-1.89049863E-6
9.31330000E+4	6.19999118E+1	0.00000000E+0	0.00000000E+0	-1.90000000E-13	6.70000000E-13	-1.52000000E-11	-1.88824855E-6
9.66990000E+4	6.29997380E+1	0.00000000E+0	0.00000000E+0	-2.00000000E-13	6.00000000E-13	-1.40000000E-11	-1.89051055E-6
1.00268000E+5	6.39998766E+1	0.00000000E+0	0.00000000E+0	-1.50000000E-13	5.70000000E-13	-1.46000000E-11	-1.87585078E-6
1.03725000E+5	6.49997967E+1	0.00000000E+0	0.00000000E+0	-4.60000000E-13	6.30000000E-13	-1.31000000E-11	-1.86144136E-6
1.07225000E+5	6.60002841E+1	0.00000000E+0	0.00000000E+0	-1.00000000E-14	6.00000000E-13	-1.51000000E-11	-1.86278842E-6
1.10707000E+5	6.69998384E+1	0.00000000E+0	0.00000000E+0	-2.20000000E-13	6.20000000E-13	-1.35000000E-11	-1.88632630E-6
1.14151000E+5	6.80000519E+1	0.00000000E+0	0.00000000E+0	-1.00000000E-13	6.40000000E-13	-1.57000000E-11	-1.88308977E-6
1.17593000E+5	6.89999835E+1	0.00000000E+0	0.00000000E+0	-1.90000000E-13	5.90000000E-13	-1.31000000E-11	-1.88543521E-6
1.21059000E+5	6.99996402E+1	0.00000000E+0	0.00000000E+0	-5.50000000E-13	6.70000000E-13	-1.55000000E-11	-1.88077413E-6
1.24512000E+5	7.10001332E+1	0.00000000E+0	0.00000000E+0	-1.40000000E-13	5.80000000E-13	-1.32000000E-11	-1.89823531E-6
1.27942000E+5	7.19999196E+1	0.00000000E+0	0.00000000E+0	-2.80000000E-13	6.40000000E-13	-1.44000000E-11	-1.88978039E-6
1.39586000E+5	7.00008787E+1	0.00000000E+0	0.00000000E+0	-2.30000000E-13	6.10000000E-13	-1.61000000E-11	-1.86557494E-6
1.43792000E+5	7.09991398E+1	0.00000000E+0	0.00000000E+0	-3.50000000E-13	6.10000000E-13	-1.41000000E-11	-1.88180529E-6
1.47274000E+5	7.20001239E+1	0.00000000E+0	0.00000000E+0	-1.90000000E-13	6.10000000E-13	-1.57000000E-11	-1.89554714E-6
1.50699000E+5	7.29999014E+1	0.00000000E+0	0.00000000E+0	-5.30000000E-13	6.20000000E-13	-1.55000000E-11	-1.87622927E-6
1.54062000E+5	7.39997520E+1	0.00000000E+0	0.00000000E+0	-2.70000000E-13	6.30000000E-13	-1.66000000E-11	-1.89236425E-6
1.57383000E+5	7.49999081E+1	0.00000000E+0	0.00000000E+0	-2.00000000E-13	6.30000000E-13	-1.34000000E-11	-1.88333713E-6
1.60694000E+5	7.60002395E+1	0.00000000E+0	0.00000000E+0	-2.90000000E-13	5.90000000E-13	-1.35000000E-11	-1.86958931E-6
1.64030000E+5	7.69999167E+1	0.00000000E+0	0.00000000E+0	-3.40000000E-13	6.20000000E-13	-1.45000000E-11	-1.87931977E-6
1.67336000E+5	7.79998590E+1	0.00000000E+0	0.00000000E+0	-3.60000000E-13	6.00000000E-13	-1.50000000E-11	-1.90652036E-6
1.70644000E+5	7.90000508E+1	0.00000000E+0	0.00000000E+0	-7.10000000E-13	5.90000000E-13	-1.57000000E-11	-1.89548455E-6
1.73962000E+5	7.99999504E+1	0.00000000E+0	0.00000000E+0	-1.90000000E-13	6.60000000E-13	-1.22000000E-11	-1.89036749E-6
1.77314000E+5	8.09998974E+1	0.00000000E+0	0.00000000E+0	-4.00000000E-13	6.30000000E-13	-1.69000000E-11	-1.88570343E-6
1.80686000E+5	8.19999755E+1	0.00000000E+0	0.00000000E+0	-2.90000000E-13	6.00000000E-13	-1.42000000E-11	-1.90875851E-6
1.83987000E+5	8.29996825E+1	0.00000000E+0	0.00000000E+0	2.00000000E-14	6.20000000E-13	-1.58000000E-11	-1.89281129E-6
1.87167000E+5	8.39994127E+1	0.00000000E+0	0.00000000E+0	-1.00000000E-13	6.00000000E-13	-1.40000000E-11	-1.87557958E-6
1.90390000E+5	8.50004678E+1	0.00000000E+0	0.00000000E+0	-2.50000000E-13	6.60000000E-13	-1.67000000E-11	-1.89160429E-6
1.93626000E+5	8.60000127E+1	0.00000000E+0	0.00000000E+0	-8.00000000E-14	6.10000000E-13	-1.64000000E-11	-1.87750183E-6
