G:\BEAR_storage\User_Experiments\20210802_arneodo\Bpm\file(1)_bpm_0005.txt
Ring Energy (GeV): 2
Lifetime (hours): 22.5314
Scan beginning: 8/3/2021	8:58:24 AM
Ring current (mA): 229.38
Source position: x (mm): 0.011 x' (mrad): -0.003 y (mm): 0.009 y' (mrad): 0.006
Scan end: 8/3/2021	9:03:24 AM
Ring current (mA): 228.55
Source position: x (mm): 0.012 x' (mrad): -0.002 y (mm): 0.009 y' (mrad): 0.006

SCAN TYPE: TIME

FILE INFO: FILE INFO:

SCAN PARAMETERS
waiting time (ms): 1000
Number of scans: 1
Current scan number: 1
DARK OFF 
PREDARK OFF 

SCAN PARAMETERS
Number of points:  500

BEAR MONOCHROMATOR CONFIGURATION: 
Current Grating Position:     186458.80
Current Mirror Position: 10000.1
Current Grating: GNIM
P2 phiz position:  -0.0140
Mono axis position: 73.5000
Current Photon Energy (eV): 30.000
Current Deviation Angle: 29.905
Vertical Exit Slits (um): 100.000
Exit slit y axis position: 1.3625
Horizontal Exit Slits (um):  890.000
Exit slit z axis position: 1.9250
Mitutoyo position (mm): 

Dose on sample (mJ/cm^2): NaN

ENERGY CALIBRATION:
offset grating G1200: yes
Delta 0 order G1200:  -800.0
offset grating G1800: not
Delta 0 order G1800:  0.0
offset grating GNIM: not
Delta 0 order GNIM:  0.0
ZERO ORDER POSITIONS:
Grating G1200: Mirror position:  4938.0
Grating position: -106855.0
Grating G1800: 
Mirror position:  4938.0
Grating position: -106345.0
Grating GNIM: 
Mirror position:  10000.0
Grating position: 227300.0

Initial filter: Al filter

EXPERIMENTAL CHAMBER CONFIGURATION: 
PsiC (deg):   -0.003344
Phi Analyzer (degrees): 0.000947
Theta Manipulator (degrees): -90.000010
Theta Analyzer (degrees): -0.000182
PhiM (degrees): -0.003077
XM (mm): -10.999887
YM (mm): 23.998825
ZM (mm): (Warning: for kinetic energy scans, 
this parameter is given in the scan settings) 
-3.000975
TiltM (°): 0.000412

COIL VALUES
Ix (amps):2.820
Iy (amps): 0.000
Iz (amps): 37.530

POLARIZATION SELECTOR CONFIGURATION:
Psi1 (rad): -0.001665535
Psi2 (rad): 0.001417093
Z min position (mm): 46.599650
DZ position (mm): 18.599100
Zmin 0 (mm): 65.700000
DZ0 (mm): 54.000000

BEAM SELECTOR CONFIGURATION:
Zmin position (mm): NaN
DZ position (mm): NaN
Y+ position (mm): NaN
Y- position (mm): NaN

CHANNEL ELECTRON MULTIPLIER CONFIGURATION:
CEM configured: OFF
Bias CEM: 0.000000

FLUORESCENCE DETECTOR CONFIGURATION:
Not configured

LUMINESCENCE MONOCHROMATOR CONFIGURATION:
Optical fiber position (mm): 0.000000
Optical fiber Switch inside: ON
Optical fiber Switch outside: ON
Monochromator wavelength (A): 0.000000
Limit Switches: ON

I0 MONITOR PARAMETERS:
I0 detector position(mm): NaN
Lower switch: OFF
Upper switch: OFF
Valve status:open

PRESSURE PARAMETERS:
Monitor chamber pressure (mbar): 1.28e-09
Experimental chamber pressure -ION GAUGE-(mbar): 0.000000E+0

XMCD PARAMETERS:
Xmcd OFF
Xmcd Direction -
Xmcd current (A): 0.000000

Gated scan off

Instrument 1: AMMETER KEITHLEY 6517A B
Measure type: Current
range type: set range value
range value (ampere):  200 pA
Integration time:  set NPLC value
NPLC value: 10.000
Digital filter count: 5
SAMPLE BIAS (V): -10.000
Vsource: ON
Output Voltage value: 10.000
Vsource range: 100 V

Instrument 2: AMMETER KEITHLEY 6517A A
Measure type: Current
range type: set range value
range value (ampere):  200 pA
Integration time:  set NPLC value
NPLC value: 10.000
Digital filter count: 2
Vsource: OFF
Output Voltage value: -0.000
Vsource range: 100 V
Trigger source: bus

Instrument 3: None


________________________________________________________________________________

RelativeTime (msec)	Number	Absolute time (msec)	Relative time (msec)	a) I_1 (Amps)	b) I_2 (Amps)	d) I_3 (Amps)	c) I_4 (Amps)	I_BPM_sum (Amps)	Delta Z(mm)	
________________________________________________________________________________

6.35500000E+3	0.00000000E+0	5.63770871E+8	6.35500000E+3	1.22644826E-5	6.74127421E-6	2.47658282E-5	2.04406494E-5	6.42122345E-5	3.43380933E-4
1.41840000E+4	1.00000000E+0	5.63778700E+8	1.41840000E+4	1.24198154E-5	6.77921555E-6	2.47821927E-5	2.05339397E-5	6.45151632E-5	3.45000873E-4
2.07160000E+4	2.00000000E+0	5.63785232E+8	2.07160000E+4	1.23572841E-5	6.76717243E-6	2.47531205E-5	2.05023343E-5	6.43799113E-5	3.44277601E-4
2.71930000E+4	3.00000000E+0	5.63791709E+8	2.71930000E+4	1.22757390E-5	6.82124875E-6	2.48434663E-5	2.04795594E-5	6.44200134E-5	3.44492050E-4
3.36290000E+4	4.00000000E+0	5.63798145E+8	3.36290000E+4	1.24003813E-5	6.80529556E-6	2.46741503E-5	2.05826396E-5	6.44624668E-5	3.44719074E-4
4.01030000E+4	5.00000000E+0	5.63804619E+8	4.01030000E+4	1.23209163E-5	6.80216036E-6	2.48689681E-5	2.05567325E-5	6.45487773E-5	3.45180627E-4
4.65890000E+4	6.00000000E+0	5.63811105E+8	4.65890000E+4	1.23869941E-5	6.78410313E-6	2.49336123E-5	2.04829896E-5	6.45876991E-5	3.45388765E-4
5.30550000E+4	7.00000000E+0	5.63817571E+8	5.30550000E+4	1.23989716E-5	6.80852614E-6	2.48154282E-5	2.05611790E-5	6.45841050E-5	3.45369545E-4
5.95530000E+4	8.00000000E+0	5.63824069E+8	5.95530000E+4	1.23735294E-5	6.78999207E-6	2.48141080E-5	2.05009246E-5	6.44785541E-5	3.44805102E-4
6.61090000E+4	9.00000000E+0	5.63830625E+8	6.61090000E+4	1.22979894E-5	6.81578598E-6	2.48491794E-5	2.05292011E-5	6.44921558E-5	3.44877839E-4
7.26340000E+4	1.00000000E+1	5.63837150E+8	7.26340000E+4	1.22932777E-5	6.77849433E-6	2.47534424E-5	2.03802342E-5	6.42054485E-5	3.43344645E-4
7.91240000E+4	1.10000000E+1	5.63843640E+8	7.91240000E+4	1.22221991E-5	6.78317628E-6	2.46737510E-5	2.04852337E-5	6.41643601E-5	3.43124920E-4
8.56250000E+4	1.20000000E+1	5.63850141E+8	8.56250000E+4	1.23040840E-5	6.78080997E-6	2.48335182E-5	2.04745973E-5	6.43930095E-5	3.44347644E-4
9.20560000E+4	1.30000000E+1	5.63856572E+8	9.20560000E+4	1.22855142E-5	6.76152489E-6	2.48082220E-5	2.04025889E-5	6.42578500E-5	3.43624866E-4
9.85410000E+4	1.40000000E+1	5.63863057E+8	9.85410000E+4	1.22634574E-5	6.78687475E-6	2.47934967E-5	2.04955572E-5	6.43393861E-5	3.44060888E-4
1.05088000E+5	1.50000000E+1	5.63869604E+8	1.05088000E+5	1.23101935E-5	6.73008343E-6	2.47350037E-5	2.04263205E-5	6.42016011E-5	3.43324070E-4
1.11531000E+5	1.60000000E+1	5.63876047E+8	1.11531000E+5	1.23315856E-5	6.78025267E-6	2.47676700E-5	2.04261119E-5	6.43056201E-5	3.43880321E-4
1.17942000E+5	1.70000000E+1	5.63882458E+8	1.17942000E+5	1.23810336E-5	6.79324350E-6	2.46876746E-5	2.05525691E-5	6.44145208E-5	3.44462678E-4
1.24408000E+5	1.80000000E+1	5.63888924E+8	1.24408000E+5	1.23474017E-5	6.79707906E-6	2.48800844E-5	2.06151003E-5	6.46396654E-5	3.45666660E-4
1.30863000E+5	1.90000000E+1	5.63895379E+8	1.30863000E+5	1.24037757E-5	6.80398128E-6	2.46475964E-5	2.05520446E-5	6.44073980E-5	3.44424588E-4
1.37377000E+5	2.00000000E+1	5.63901893E+8	1.37377000E+5	1.22979924E-5	6.73992714E-6	2.48230904E-5	2.03919107E-5	6.42529207E-5	3.43598506E-4
1.43901000E+5	2.10000000E+1	5.63908417E+8	1.43901000E+5	1.22728035E-5	6.78124509E-6	2.47193098E-5	2.04588885E-5	6.42322468E-5	3.43487951E-4
1.50307000E+5	2.20000000E+1	5.63914823E+8	1.50307000E+5	1.24301270E-5	6.74721977E-6	2.48782188E-5	2.05037559E-5	6.45593214E-5	3.45237013E-4
1.56768000E+5	2.30000000E+1	5.63921284E+8	1.56768000E+5	1.23348132E-5	6.76038644E-6	2.47141838E-5	2.05778415E-5	6.43872248E-5	3.44316710E-4
1.63222000E+5	2.40000000E+1	5.63927738E+8	1.63222000E+5	1.23800173E-5	6.77127025E-6	2.47817248E-5	2.04272742E-5	6.43602865E-5	3.44172655E-4
1.69701000E+5	2.50000000E+1	5.63934217E+8	1.69701000E+5	1.22751280E-5	6.76424584E-6	2.47329414E-5	2.04668278E-5	6.42391430E-5	3.43524829E-4
1.76253000E+5	2.60000000E+1	5.63940769E+8	1.76253000E+5	1.22795596E-5	6.77873275E-6	2.47450143E-5	2.04078222E-5	6.42111289E-5	3.43375021E-4
1.82798000E+5	2.70000000E+1	5.63947314E+8	1.82798000E+5	1.23501763E-5	6.78578100E-6	2.47949987E-5	2.05129290E-5	6.44438850E-5	3.44619706E-4
1.89242000E+5	2.80000000E+1	5.63953758E+8	1.89242000E+5	1.24019965E-5	6.75584158E-6	2.47543215E-5	2.05026889E-5	6.44148486E-5	3.44464431E-4
1.95698000E+5	2.90000000E+1	5.63960214E+8	1.95698000E+5	1.22091755E-5	6.75608000E-6	2.47437387E-5	2.05183530E-5	6.42273473E-5	3.43461750E-4
2.02190000E+5	3.00000000E+1	5.63966706E+8	2.02190000E+5	1.22651443E-5	6.79234049E-6	2.47466474E-5	2.03463191E-5	6.41504513E-5	3.43050542E-4
2.08666000E+5	3.10000000E+1	5.63973182E+8	2.08666000E+5	1.22405335E-5	6.78556344E-6	2.46883243E-5	2.04783881E-5	6.41928094E-5	3.43277055E-4
2.15135000E+5	3.20000000E+1	5.63979651E+8	2.15135000E+5	1.23445704E-5	6.78261003E-6	2.48932063E-5	2.05212439E-5	6.45416307E-5	3.45142410E-4
2.21585000E+5	3.30000000E+1	5.63986101E+8	2.21585000E+5	1.23036399E-5	6.75557634E-6	2.47853726E-5	2.06149781E-5	6.44595670E-5	3.44703567E-4
2.28070000E+5	3.40000000E+1	5.63992586E+8	2.28070000E+5	1.23501375E-5	6.76885328E-6	2.48004973E-5	2.05047185E-5	6.44242065E-5	3.44514474E-4
2.34512000E+5	3.50000000E+1	5.63999028E+8	2.34512000E+5	1.22364267E-5	6.75651512E-6	2.44715839E-5	2.04327846E-5	6.38973104E-5	3.41696847E-4
2.40988000E+5	3.60000000E+1	5.64005504E+8	2.40988000E+5	1.23655185E-5	6.73229477E-6	2.46030867E-5	2.04868401E-5	6.41877400E-5	3.43249946E-4
2.47462000E+5	3.70000000E+1	5.64011978E+8	2.47462000E+5	1.22864350E-5	6.77391073E-6	2.47586935E-5	2.04093421E-5	6.42283814E-5	3.43467280E-4
2.53969000E+5	3.80000000E+1	5.64018485E+8	2.53969000E+5	1.23591646E-5	6.78343556E-6	2.47929603E-5	2.05321694E-5	6.44677299E-5	3.44747219E-4
2.60419000E+5	3.90000000E+1	5.64024935E+8	2.60419000E+5	1.22842237E-5	6.71582898E-6	2.47853189E-5	2.04508746E-5	6.42362463E-5	3.43509338E-4
2.66924000E+5	4.00000000E+1	5.64031440E+8	2.66924000E+5	1.23226657E-5	6.80261037E-6	2.48152166E-5	2.04620982E-5	6.44025909E-5	3.44398882E-4
2.73408000E+5	4.10000000E+1	5.64037924E+8	2.73408000E+5	1.22404769E-5	6.74311599E-6	2.47210234E-5	2.03743393E-5	6.40789555E-5	3.42668211E-4
2.79875000E+5	4.20000000E+1	5.64044391E+8	2.79875000E+5	1.23287782E-5	6.77047155E-6	2.47642427E-5	2.04513813E-5	6.43148737E-5	3.43929806E-4
2.86406000E+5	4.30000000E+1	5.64050922E+8	2.86406000E+5	1.23586461E-5	6.73967978E-6	2.46083319E-5	2.04154754E-5	6.41221332E-5	3.42899108E-4
2.92869000E+5	4.40000000E+1	5.64057385E+8	2.92869000E+5	1.23347565E-5	6.72010859E-6	2.47739970E-5	2.04711074E-5	6.42999696E-5	3.43850105E-4
2.99306000E+5	4.50000000E+1	5.64063822E+8	2.99306000E+5	1.22689441E-5	6.71612998E-6	2.48341769E-5	2.04011286E-5	6.42203795E-5	3.43424489E-4
