G:\BEAR_storage\User_Experiments\20220108_arneodo\Tmp\file(1)_tmp_0024.txt
Ring Energy (GeV): 2
Lifetime (hours): 17.2675
Scan beginning: 8/2/2022	10:13:07 AM
Ring current (mA): 308.67
Source position: x (mm): -0.004 x' (mrad): 0.003 y (mm): -0.005 y' (mrad): 0
Scan end: 8/2/2022	10:14:25 AM
Ring current (mA): 308.27
Source position: x (mm): -0.005 x' (mrad): 0.004 y (mm): -0.004 y' (mrad): 0.001

SCAN TYPE: TIME

FILE INFO: FILE INFO:

SCAN PARAMETERS
waiting time (ms): 0
Number of scans: 1
Current scan number: 1
DARK OFF 
PREDARK OFF 

SCAN PARAMETERS
Number of points:  100

BEAR MONOCHROMATOR CONFIGURATION: 
Current Grating Position:     160137.50
Current Mirror Position: 298443.4
Current Grating: G1200
P2 phiz position:  0.0000
Mono axis position: 25.0000
Current Photon Energy (eV): 1500.005
Current Deviation Angle: 175.800
Vertical Exit Slits (um): 450.000
Exit slit y axis position: 2.2375
Horizontal Exit Slits (um):  890.000
Exit slit z axis position: 1.9250
Mitutoyo position (mm): 

Dose on sample (mJ/cm^2): NaN

ENERGY CALIBRATION:
offset grating G1200: yes
Delta 0 order G1200:  -500.0
offset grating G1800: not
Delta 0 order G1800:  0.0
offset grating GNIM: not
Delta 0 order GNIM:  0.0
ZERO ORDER POSITIONS:
Grating G1200: Mirror position:  4938.0
Grating position: -105355.0
Grating G1800: 
Mirror position:  4938.0
Grating position: -106345.0
Grating GNIM: 
Mirror position:  10000.0
Grating position: 227300.0

Initial filter: Ag filter 0.6 um

EXPERIMENTAL CHAMBER CONFIGURATION: 
PsiC (deg):   0.036413
Phi Analyzer (degrees): -0.009471
Theta Manipulator (degrees): -45.000040
Theta Analyzer (degrees): -0.000455
PhiM (degrees): -0.006155
XM (mm): 2.999938
YM (mm): 14.999863
ZM (mm): (Warning: for kinetic energy scans, 
this parameter is given in the scan settings) 
-8.300075
TiltM (°): -0.000275

COIL VALUES
Ix (amps):2.950
Iy (amps): 6.790
Iz (amps): 14.440

POLARIZATION SELECTOR CONFIGURATION:
Psi1 (rad): -0.001665535
Psi2 (rad): 0.001417093
Z min position (mm): 46.599650
DZ position (mm): 18.599100
Zmin 0 (mm): 66.500000
DZ0 (mm): 53.000000

BEAM SELECTOR CONFIGURATION:
Zmin position (mm): 158.000000
DZ position (mm): 264.000000
Y+ position (mm): 291.700000
Y- position (mm): NaN

CHANNEL ELECTRON MULTIPLIER CONFIGURATION:
CEM configured: OFF
Bias CEM: 0.000000

FLUORESCENCE DETECTOR CONFIGURATION:
Not configured

LUMINESCENCE MONOCHROMATOR CONFIGURATION:
Optical fiber position (mm): 0.000000
Optical fiber Switch inside: OFF
Optical fiber Switch outside: ON
Monochromator wavelength (A): 229000.000000
Limit Switches: OFF

I0 MONITOR PARAMETERS:
I0 detector position(mm): 1.924999E+2
Lower switch: OFF
Upper switch: OFF
Valve status:open

PRESSURE PARAMETERS:
Monitor chamber pressure (mbar): 2.304e-09
Experimental chamber pressure -ION GAUGE-(mbar): 0.000000E+0

XMCD PARAMETERS:
Xmcd OFF
Xmcd Direction -
Xmcd current (A): 0.000000

Gated scan off

Instrument 1: AMMETER KEITHLEY 6517A B
Measure type: Current
range type: set range value
range value (ampere):  200 nA
Integration time:  set NPLC value
NPLC value: 10.000
Digital filter count: 2
SAMPLE BIAS (V): -30.000
Vsource: ON
Output Voltage value: 30.000
Vsource range: 1000 V

Instrument 2: AMMETER KEITHLEY 6517A A
Measure type: Current
range type: set range value
range value (ampere):  200 nA
Integration time:  set NPLC value
NPLC value: 10.000
Digital filter count: 2
Vsource: OFF
Output Voltage value: -0.000
Vsource range: 100 V
Trigger source: bus

Instrument 3: AMMETER KEITHLEY 6517A C 
Measure type: Current
range type: set range value
range value (ampere):  200 nA
Integration time:  set NPLC value
NPLC value: 10.000
Digital filter count: 2
Vsource: OFF
Output Voltage value: -0.000
Vsource range: 100 V
Trigger source: bus


________________________________________________________________________________

RelativeTime (msec)	Number	Absolute time (msec)	Relative time (msec)	INSTR_1_Sample with Bias _(ampere ) 	INSTR_2_Monitor IM_(ampere)  	INSTR_3_Diode A3_(ampere)	I_BPM_sum (Amps)	
________________________________________________________________________________

1.42800000E+3	0.00000000E+0	6.92755052E+8	1.42800000E+3	4.40000000E-12	7.10000000E-12	-1.00000000E-12	1.16106882E-7
3.61900000E+3	1.00000000E+0	6.92757243E+8	3.61900000E+3	3.90000000E-12	7.10000000E-12	2.00000000E-12	1.16050257E-7
5.14800000E+3	2.00000000E+0	6.92758772E+8	5.14800000E+3	3.80000000E-12	7.10000000E-12	1.50000000E-12	1.16348280E-7
6.70000000E+3	3.00000000E+0	6.92760324E+8	6.70000000E+3	3.40000000E-12	7.10000000E-12	-1.00000000E-13	1.16851940E-7
8.22700000E+3	4.00000000E+0	6.92761851E+8	8.22700000E+3	3.30000000E-12	7.10000000E-12	-1.00000000E-12	1.15937008E-7
9.75500000E+3	5.00000000E+0	6.92763379E+8	9.75500000E+3	3.40000000E-12	7.10000000E-12	1.10000000E-12	1.16392984E-7
1.12700000E+4	6.00000000E+0	6.92764894E+8	1.12700000E+4	3.80000000E-12	7.10000000E-12	7.00000000E-13	1.15433349E-7
1.28240000E+4	7.00000000E+0	6.92766448E+8	1.28240000E+4	3.30000000E-12	7.10000000E-12	-2.00000000E-13	1.15340962E-7
1.43350000E+4	8.00000000E+0	6.92767959E+8	1.43350000E+4	3.00000000E-12	7.10000000E-12	2.00000000E-13	1.16089000E-7
1.58560000E+4	9.00000000E+0	6.92769480E+8	1.58560000E+4	3.50000000E-12	7.10000000E-12	2.60000000E-12	1.16029396E-7
1.73700000E+4	1.00000000E+1	6.92770994E+8	1.73700000E+4	3.20000000E-12	7.10000000E-12	1.20000000E-12	1.16071119E-7
1.88850000E+4	1.10000000E+1	6.92772509E+8	1.88850000E+4	3.00000000E-12	7.10000000E-12	2.10000000E-12	1.16011514E-7
2.04060000E+4	1.20000000E+1	6.92774030E+8	2.04060000E+4	2.90000000E-12	7.10000000E-12	2.30000000E-12	1.15889325E-7
2.19120000E+4	1.30000000E+1	6.92775536E+8	2.19120000E+4	2.70000000E-12	7.10000000E-12	2.30000000E-12	1.15808858E-7
2.34270000E+4	1.40000000E+1	6.92777051E+8	2.34270000E+4	2.60000000E-12	7.10000000E-12	-1.00000000E-13	1.16047277E-7
2.49430000E+4	1.50000000E+1	6.92778567E+8	2.49430000E+4	2.90000000E-12	7.00000000E-12	1.00000000E-13	1.16026415E-7
2.64570000E+4	1.60000000E+1	6.92780081E+8	2.64570000E+4	2.80000000E-12	7.10000000E-12	1.60000000E-12	1.16628422E-7
2.79700000E+4	1.70000000E+1	6.92781594E+8	2.79700000E+4	2.60000000E-12	7.10000000E-12	5.00000000E-13	1.15928068E-7
2.94920000E+4	1.80000000E+1	6.92783116E+8	2.94920000E+4	2.70000000E-12	7.10000000E-12	3.00000000E-13	1.15919127E-7
3.09940000E+4	1.90000000E+1	6.92784618E+8	3.09940000E+4	3.10000000E-12	7.10000000E-12	5.00000000E-13	1.15799918E-7
3.25170000E+4	2.00000000E+1	6.92786141E+8	3.25170000E+4	2.80000000E-12	7.10000000E-12	6.00000000E-13	1.15633025E-7
3.40370000E+4	2.10000000E+1	6.92787661E+8	3.40370000E+4	2.50000000E-12	7.10000000E-12	7.00000000E-13	1.15472092E-7
3.55500000E+4	2.20000000E+1	6.92789174E+8	3.55500000E+4	3.10000000E-12	7.10000000E-12	1.20000000E-12	1.16032376E-7
3.70580000E+4	2.30000000E+1	6.92790682E+8	3.70580000E+4	2.30000000E-12	7.10000000E-12	5.00000000E-13	1.15427389E-7
3.85710000E+4	2.40000000E+1	6.92792195E+8	3.85710000E+4	2.50000000E-12	7.10000000E-12	1.00000000E-12	1.16321458E-7
4.00820000E+4	2.50000000E+1	6.92793706E+8	4.00820000E+4	2.60000000E-12	7.10000000E-12	2.00000000E-13	1.16592660E-7
4.15950000E+4	2.60000000E+1	6.92795219E+8	4.15950000E+4	2.40000000E-12	7.10000000E-12	1.10000000E-12	1.16047277E-7
4.30920000E+4	2.70000000E+1	6.92796716E+8	4.30920000E+4	2.80000000E-12	7.10000000E-12	1.10000000E-12	1.15841641E-7
4.46090000E+4	2.80000000E+1	6.92798233E+8	4.46090000E+4	2.40000000E-12	7.00000000E-12	4.00000000E-13	1.15576400E-7
4.61200000E+4	2.90000000E+1	6.92799744E+8	4.61200000E+4	2.30000000E-12	7.10000000E-12	-1.00000000E-13	1.15922107E-7
4.76300000E+4	3.00000000E+1	6.92801254E+8	4.76300000E+4	2.40000000E-12	7.10000000E-12	1.00000000E-13	1.16077079E-7
4.91800000E+4	3.10000000E+1	6.92802804E+8	4.91800000E+4	2.50000000E-12	7.10000000E-12	6.00000000E-13	1.15484013E-7
5.06930000E+4	3.20000000E+1	6.92804317E+8	5.06930000E+4	2.50000000E-12	7.10000000E-12	9.00000000E-13	1.15585341E-7
5.21940000E+4	3.30000000E+1	6.92805818E+8	5.21940000E+4	2.60000000E-12	7.10000000E-12	9.00000000E-13	1.15725412E-7
5.37070000E+4	3.40000000E+1	6.92807331E+8	5.37070000E+4	2.50000000E-12	7.10000000E-12	1.20000000E-12	1.16246953E-7
5.52210000E+4	3.50000000E+1	6.92808845E+8	5.52210000E+4	2.70000000E-12	7.10000000E-12	-1.00000000E-13	1.15412487E-7
5.67350000E+4	3.60000000E+1	6.92810359E+8	5.67350000E+4	2.40000000E-12	7.10000000E-12	-4.00000000E-13	1.15567460E-7
5.82450000E+4	3.70000000E+1	6.92811869E+8	5.82450000E+4	2.60000000E-12	7.10000000E-12	1.00000000E-12	1.15144267E-7
5.97680000E+4	3.80000000E+1	6.92813392E+8	5.97680000E+4	2.50000000E-12	7.10000000E-12	9.00000000E-13	1.15230693E-7
6.12800000E+4	3.90000000E+1	6.92814904E+8	6.12800000E+4	2.40000000E-12	7.10000000E-12	9.00000000E-13	1.15010156E-7
6.27160000E+4	4.00000000E+1	6.92816340E+8	6.27160000E+4	2.40000000E-12	7.10000000E-12	9.00000000E-13	1.15349903E-7
6.42210000E+4	4.10000000E+1	6.92817845E+8	6.42210000E+4	2.30000000E-12	7.10000000E-12	5.00000000E-13	1.15096583E-7
6.57740000E+4	4.20000000E+1	6.92819398E+8	6.57740000E+4	2.60000000E-12	7.10000000E-12	5.00000000E-13	1.14828362E-7
6.72950000E+4	4.30000000E+1	6.92820919E+8	6.72950000E+4	2.60000000E-12	7.10000000E-12	1.00000000E-12	1.15564479E-7
6.88060000E+4	4.40000000E+1	6.92822430E+8	6.88060000E+4	2.40000000E-12	7.10000000E-12	8.00000000E-13	1.15296258E-7
7.03270000E+4	4.50000000E+1	6.92823951E+8	7.03270000E+4	2.70000000E-12	7.10000000E-12	1.80000000E-12	1.15197911E-7
7.18430000E+4	4.60000000E+1	6.92825467E+8	7.18430000E+4	2.40000000E-12	7.10000000E-12	1.00000000E-13	1.14852204E-7
7.33520000E+4	4.70000000E+1	6.92826976E+8	7.33520000E+4	2.40000000E-12	7.10000000E-12	6.00000000E-13	1.15123405E-7
7.47950000E+4	4.80000000E+1	6.92828419E+8	7.47950000E+4	2.40000000E-12	7.10000000E-12	6.00000000E-13	1.14488615E-7
7.62840000E+4	4.90000000E+1	6.92829908E+8	7.62840000E+4	2.20000000E-12	7.10000000E-12	0.00000000E+0	1.15424408E-7
