G:\BEAR_storage\User_Experiments\20220108_arneodo\Tmp\file(1)_tmp_0027.txt
Ring Energy (GeV): 2
Lifetime (hours): 17.0983
Scan beginning: 8/2/2022	10:23:29 AM
Ring current (mA): 308.22
Source position: x (mm): -0.005 x' (mrad): 0.004 y (mm): -0.005 y' (mrad): 0.002
Scan end: 8/2/2022	10:24:46 AM
Ring current (mA): 307.84
Source position: x (mm): -0.004 x' (mrad): 0.004 y (mm): -0.007 y' (mrad): 0

SCAN TYPE: TIME

FILE INFO: FILE INFO:

SCAN PARAMETERS
waiting time (ms): 0
Number of scans: 1
Current scan number: 1
DARK OFF 
PREDARK OFF 

SCAN PARAMETERS
Number of points:  100

BEAR MONOCHROMATOR CONFIGURATION: 
Current Grating Position:     160137.50
Current Mirror Position: 298443.4
Current Grating: G1200
P2 phiz position:  0.0000
Mono axis position: 25.0000
Current Photon Energy (eV): 1500.005
Current Deviation Angle: 175.800
Vertical Exit Slits (um): 450.000
Exit slit y axis position: 2.2375
Horizontal Exit Slits (um):  890.000
Exit slit z axis position: 1.9250
Mitutoyo position (mm): 

Dose on sample (mJ/cm^2): NaN

ENERGY CALIBRATION:
offset grating G1200: yes
Delta 0 order G1200:  -500.0
offset grating G1800: not
Delta 0 order G1800:  0.0
offset grating GNIM: not
Delta 0 order GNIM:  0.0
ZERO ORDER POSITIONS:
Grating G1200: Mirror position:  4938.0
Grating position: -105355.0
Grating G1800: 
Mirror position:  4938.0
Grating position: -106345.0
Grating GNIM: 
Mirror position:  10000.0
Grating position: 227300.0

Initial filter: Ag filter 0.6 um

EXPERIMENTAL CHAMBER CONFIGURATION: 
PsiC (deg):   0.036413
Phi Analyzer (degrees): -0.009471
Theta Manipulator (degrees): -45.000040
Theta Analyzer (degrees): -0.000455
PhiM (degrees): -0.006155
XM (mm): 2.999938
YM (mm): 14.999863
ZM (mm): (Warning: for kinetic energy scans, 
this parameter is given in the scan settings) 
-8.300075
TiltM (°): -0.000275

COIL VALUES
Ix (amps):2.950
Iy (amps): 6.790
Iz (amps): 14.440

POLARIZATION SELECTOR CONFIGURATION:
Psi1 (rad): -0.001665535
Psi2 (rad): 0.001417093
Z min position (mm): 46.599650
DZ position (mm): 18.599100
Zmin 0 (mm): 66.500000
DZ0 (mm): 53.000000

BEAM SELECTOR CONFIGURATION:
Zmin position (mm): 158.000000
DZ position (mm): 264.000000
Y+ position (mm): 291.700000
Y- position (mm): NaN

CHANNEL ELECTRON MULTIPLIER CONFIGURATION:
CEM configured: OFF
Bias CEM: 0.000000

FLUORESCENCE DETECTOR CONFIGURATION:
Not configured

LUMINESCENCE MONOCHROMATOR CONFIGURATION:
Optical fiber position (mm): 0.000000
Optical fiber Switch inside: OFF
Optical fiber Switch outside: ON
Monochromator wavelength (A): 229000.000000
Limit Switches: OFF

I0 MONITOR PARAMETERS:
I0 detector position(mm): 1.924999E+2
Lower switch: OFF
Upper switch: OFF
Valve status:open

PRESSURE PARAMETERS:
Monitor chamber pressure (mbar): 2.31e-09
Experimental chamber pressure -ION GAUGE-(mbar): 0.000000E+0

XMCD PARAMETERS:
Xmcd OFF
Xmcd Direction -
Xmcd current (A): 0.000000

Gated scan off

Instrument 1: AMMETER KEITHLEY 6517A B
Measure type: Current
range type: set range value
range value (ampere):  200 uA
Integration time:  set NPLC value
NPLC value: 10.000
Digital filter count: 2
SAMPLE BIAS (V): -30.000
Vsource: ON
Output Voltage value: 30.000
Vsource range: 1000 V

Instrument 2: AMMETER KEITHLEY 6517A A
Measure type: Current
range type: set range value
range value (ampere):  200 uA
Integration time:  set NPLC value
NPLC value: 10.000
Digital filter count: 2
Vsource: OFF
Output Voltage value: -0.000
Vsource range: 100 V
Trigger source: bus

Instrument 3: AMMETER KEITHLEY 6517A C 
Measure type: Current
range type: set range value
range value (ampere):  200 uA
Integration time:  set NPLC value
NPLC value: 10.000
Digital filter count: 2
Vsource: OFF
Output Voltage value: -0.000
Vsource range: 100 V
Trigger source: bus


________________________________________________________________________________

RelativeTime (msec)	Number	Absolute time (msec)	Relative time (msec)	INSTR_1_Sample with Bias _(ampere ) 	INSTR_2_Monitor IM_(ampere)  	INSTR_3_Diode A3_(ampere)	I_BPM_sum (Amps)	
________________________________________________________________________________

1.43600000E+3	0.00000000E+0	6.93376806E+8	1.43600000E+3	2.00000000E-9	7.10000000E-9	1.00000000E-10	1.10206021E-7
3.58200000E+3	1.00000000E+0	6.93378952E+8	3.58200000E+3	2.00000000E-9	7.00000000E-9	1.00000000E-10	1.10337151E-7
5.10000000E+3	2.00000000E+0	6.93380470E+8	5.10000000E+3	1.90000000E-9	7.00000000E-9	1.00000000E-10	1.09952701E-7
6.59200000E+3	3.00000000E+0	6.93381962E+8	6.59200000E+3	2.00000000E-9	7.00000000E-9	1.00000000E-10	1.10119594E-7
8.10500000E+3	4.00000000E+0	6.93383475E+8	8.10500000E+3	1.90000000E-9	7.00000000E-9	0.00000000E+0	1.10358013E-7
9.57300000E+3	5.00000000E+0	6.93384943E+8	9.57300000E+3	1.90000000E-9	7.00000000E-9	0.00000000E+0	1.10331191E-7
1.10520000E+4	6.00000000E+0	6.93386422E+8	1.10520000E+4	2.00000000E-9	7.00000000E-9	0.00000000E+0	1.10185159E-7
1.25470000E+4	7.00000000E+0	6.93387917E+8	1.25470000E+4	1.90000000E-9	7.00000000E-9	0.00000000E+0	1.09723223E-7
1.39900000E+4	8.00000000E+0	6.93389360E+8	1.39900000E+4	1.90000000E-9	7.00000000E-9	0.00000000E+0	1.10155357E-7
1.54080000E+4	9.00000000E+0	6.93390778E+8	1.54080000E+4	1.90000000E-9	7.00000000E-9	0.00000000E+0	1.10241784E-7
1.68470000E+4	1.00000000E+1	6.93392217E+8	1.68470000E+4	1.90000000E-9	7.00000000E-9	0.00000000E+0	1.10101713E-7
1.83110000E+4	1.10000000E+1	6.93393681E+8	1.83110000E+4	2.00000000E-9	7.00000000E-9	0.00000000E+0	1.11079229E-7
1.98190000E+4	1.20000000E+1	6.93395189E+8	1.98190000E+4	1.90000000E-9	7.00000000E-9	0.00000000E+0	1.09702362E-7
2.13210000E+4	1.30000000E+1	6.93396691E+8	2.13210000E+4	2.00000000E-9	7.00000000E-9	1.00000000E-10	1.09437121E-7
2.28230000E+4	1.40000000E+1	6.93398193E+8	2.28230000E+4	1.90000000E-9	7.00000000E-9	1.00000000E-10	1.10855712E-7
2.43320000E+4	1.50000000E+1	6.93399702E+8	2.43320000E+4	2.00000000E-9	7.00000000E-9	0.00000000E+0	1.09928859E-7
2.58730000E+4	1.60000000E+1	6.93401243E+8	2.58730000E+4	2.00000000E-9	7.00000000E-9	1.00000000E-10	1.10524906E-7
2.73820000E+4	1.70000000E+1	6.93402752E+8	2.73820000E+4	1.90000000E-9	7.00000000E-9	0.00000000E+0	1.09729184E-7
2.88950000E+4	1.80000000E+1	6.93404265E+8	2.88950000E+4	2.00000000E-9	7.00000000E-9	1.00000000E-10	1.10101713E-7
3.04030000E+4	1.90000000E+1	6.93405773E+8	3.04030000E+4	1.90000000E-9	7.00000000E-9	0.00000000E+0	1.09782828E-7
3.19260000E+4	2.00000000E+1	6.93407296E+8	3.19260000E+4	2.00000000E-9	7.00000000E-9	0.00000000E+0	1.09604014E-7
3.34280000E+4	2.10000000E+1	6.93408798E+8	3.34280000E+4	1.90000000E-9	7.00000000E-9	0.00000000E+0	1.09434141E-7
3.49090000E+4	2.20000000E+1	6.93410279E+8	3.49090000E+4	1.90000000E-9	7.00000000E-9	0.00000000E+0	1.09753026E-7
3.63160000E+4	2.30000000E+1	6.93411686E+8	3.63160000E+4	1.90000000E-9	7.00000000E-9	0.00000000E+0	1.09845413E-7
3.78320000E+4	2.40000000E+1	6.93413202E+8	3.78320000E+4	1.90000000E-9	7.00000000E-9	1.00000000E-10	1.10456361E-7
3.93360000E+4	2.50000000E+1	6.93414706E+8	3.93360000E+4	2.00000000E-9	7.00000000E-9	1.00000000E-10	1.10492123E-7
4.08500000E+4	2.60000000E+1	6.93416220E+8	4.08500000E+4	2.00000000E-9	7.00000000E-9	0.00000000E+0	1.10065950E-7
4.23250000E+4	2.70000000E+1	6.93417695E+8	4.23250000E+4	2.00000000E-9	7.00000000E-9	0.00000000E+0	1.10626234E-7
4.38080000E+4	2.80000000E+1	6.93419178E+8	4.38080000E+4	1.90000000E-9	7.00000000E-9	1.00000000E-10	1.10319270E-7
4.53180000E+4	2.90000000E+1	6.93420688E+8	4.53180000E+4	2.00000000E-9	7.00000000E-9	1.00000000E-10	1.10372914E-7
4.68220000E+4	3.00000000E+1	6.93422192E+8	4.68220000E+4	1.90000000E-9	7.00000000E-9	1.00000000E-10	1.09571232E-7
4.83370000E+4	3.10000000E+1	6.93423707E+8	4.83370000E+4	1.90000000E-9	7.00000000E-9	0.00000000E+0	1.10283507E-7
4.97860000E+4	3.20000000E+1	6.93425156E+8	4.97860000E+4	1.90000000E-9	7.00000000E-9	0.00000000E+0	1.10507025E-7
5.12710000E+4	3.30000000E+1	6.93426641E+8	5.12710000E+4	1.90000000E-9	7.00000000E-9	1.00000000E-10	1.09303011E-7
5.27680000E+4	3.40000000E+1	6.93428138E+8	5.27680000E+4	2.00000000E-9	7.00000000E-9	1.00000000E-10	1.09955682E-7
5.42650000E+4	3.50000000E+1	6.93429635E+8	5.42650000E+4	1.90000000E-9	7.00000000E-9	1.00000000E-10	1.09979523E-7
5.57660000E+4	3.60000000E+1	6.93431136E+8	5.57660000E+4	2.00000000E-9	7.00000000E-9	1.00000000E-10	1.09356655E-7
5.72840000E+4	3.70000000E+1	6.93432654E+8	5.72840000E+4	2.00000000E-9	7.00000000E-9	0.00000000E+0	1.10054029E-7
5.87990000E+4	3.80000000E+1	6.93434169E+8	5.87990000E+4	2.00000000E-9	7.00000000E-9	1.00000000E-10	1.09744085E-7
6.03460000E+4	3.90000000E+1	6.93435716E+8	6.03460000E+4	1.90000000E-9	7.00000000E-9	1.00000000E-10	1.09806670E-7
6.17920000E+4	4.00000000E+1	6.93437162E+8	6.17920000E+4	1.90000000E-9	7.00000000E-9	1.00000000E-10	1.10766305E-7
6.32090000E+4	4.10000000E+1	6.93438579E+8	6.32090000E+4	1.90000000E-9	7.00000000E-9	1.00000000E-10	1.10018266E-7
6.47090000E+4	4.20000000E+1	6.93440079E+8	6.47090000E+4	2.00000000E-9	7.00000000E-9	1.00000000E-10	1.09973563E-7
6.62230000E+4	4.30000000E+1	6.93441593E+8	6.62230000E+4	1.90000000E-9	7.00000000E-9	1.00000000E-10	1.09580172E-7
6.77400000E+4	4.40000000E+1	6.93443110E+8	6.77400000E+4	2.00000000E-9	7.00000000E-9	1.00000000E-10	1.10071911E-7
6.92520000E+4	4.50000000E+1	6.93444622E+8	6.92520000E+4	1.90000000E-9	7.00000000E-9	1.00000000E-10	1.09934820E-7
7.07710000E+4	4.60000000E+1	6.93446141E+8	7.07710000E+4	2.00000000E-9	7.00000000E-9	0.00000000E+0	1.09821571E-7
7.22910000E+4	4.70000000E+1	6.93447661E+8	7.22910000E+4	1.90000000E-9	7.00000000E-9	1.00000000E-10	1.09609975E-7
7.37250000E+4	4.80000000E+1	6.93449095E+8	7.37250000E+4	1.90000000E-9	7.00000000E-9	1.00000000E-10	1.10238804E-7
7.52150000E+4	4.90000000E+1	6.93450585E+8	7.52150000E+4	2.00000000E-9	7.00000000E-9	1.00000000E-10	1.09341754E-7
